#timestamp [ns],w_RS_S_x [rad s^-1],w_RS_S_y [rad s^-1],w_RS_S_z [rad s^-1],a_RS_S_x [m s^-2],a_RS_S_y [m s^-2],a_RS_S_z [m s^-2] 
1636273817981032587,0.00692422,0.00319579,-0.0170442,9.87608,-0.320823,0.0933739
1636273818005967598,-0.00319579,0.0015979,-0.0197074,9.84735,-0.371101,0.0837971
1636273818006984749,0.0015979,-0.00319579,-0.0165116,9.83538,-0.328006,0.0933739
1636273818009947572,0.00585895,0.00319579,-0.0197074,9.81862,-0.3304,0.0933739
1636273818078968281,0.00106526,0.00106526,-0.0229032,9.87129,-0.347159,0.126893
1636273818103947803,0.00372843,0.000532632,-0.0170442,9.79707,-0.378284,0.122104
1636273818105945879,0.00266316,0.00372843,-0.0207727,9.84256,-0.397437,0.153229
1636273818106991550,0.00213053,0.00426106,-0.0197074,9.85453,-0.339977,0.100556
1636273818109947602,0.0015979,0.00213053,-0.0154463,9.84256,-0.351948,0.071826
1636273818113973036,0.00106526,0.00372843,-0.015979,9.78271,-0.347159,0.11971
1636273818116017737,0.00532632,0.00319579,-0.0191748,9.80186,-0.342371,0.114922
1636273818116950365,0.0015979,0.00372843,-0.0106526,9.88326,-0.361524,0.112527
1636273818119971118,0.00532632,0.00213053,-0.0191748,9.88805,-0.35913,0.100556
1636273818121943387,0.00213053,0.00266316,-0.0207727,9.8282,-0.323217,0.141258
1636273818123969656,0.00106526,-0.0015979,-0.0191748,9.79707,-0.349553,0.0957681
1636273818139943339,0.00372843,0.00372843,-0.02024,9.79228,-0.339977,0.189142
1636273818142948312,0.00213053,0.00319579,-0.0197074,9.80904,-0.332794,0.114922
1636273818144946819,0.00479369,-0.00266316,-0.0165116,9.84256,-0.385466,0.102951
1636273818146955318,0.00106526,0.00372843,-0.0186421,9.86411,-0.354342,0.114922
1636273818148947780,-0.00213053,-0.00106526,-0.0223706,9.82102,-0.361524,0.146046
1636273818149962639,0.00319579,0.000532632,-0.0186421,9.81862,-0.320823,0.134075
1636273818152943694,0.000532632,0.00372843,-0.0186421,9.75398,-0.361524,0.11971
1636273818154958295,0.00213053,0.0015979,-0.0175769,9.80665,-0.354342,0.105345
1636273818157941716,0.0015979,0.000532632,-0.0207727,9.92636,-0.339977,0.134075
1636273818159941812,0.00106526,-0.000532632,-0.0223706,9.80426,-0.318429,0.141258
1636273818161968399,0,-0.00266316,-0.0213053,9.86172,-0.323217,0.143652
1636273818163940361,0.00426106,0.0015979,-0.0197074,9.87369,-0.378284,0.0790087
1636273818165958297,0.00905475,0.00213053,-0.0207727,9.85932,-0.363919,0.126893
1636273818167955401,0.0015979,-0.00106526,-0.0181095,9.78031,-0.311246,0.122104
1636273818168969106,0.00479369,-0.00106526,-0.0197074,9.87369,-0.3304,0.131681
1636273818171977510,0,0.00213053,-0.0191748,9.76595,-0.318429,0.102951
1636273818173975190,0.00266316,0.0015979,-0.0197074,9.81383,-0.37589,0.126893
1636273818175967155,0.00106526,0.0015979,-0.0191748,9.86172,-0.332794,0.0766145
1636273818177967631,0.00266316,0,-0.0165116,9.7875,-0.304064,0.150835
1636273818180939971,0.00532632,0.00106526,-0.0213053,9.80426,-0.292093,0.122104
1636273818182941815,0.000532632,-0.00213053,-0.0229032,9.80904,-0.349553,0.141258
1636273818184949439,0,-0.000532632,-0.0170442,9.85214,-0.316035,0.117316
1636273818186970036,0.0015979,0.000532632,-0.0223706,9.7875,-0.380678,0.107739
1636273818187950218,0.00372843,-0.00266316,-0.0207727,9.86411,-0.335188,0.107739
1636273818190966661,0.00266316,0.00106526,-0.0181095,9.81862,-0.351948,0.105345
1636273818206942187,0.00692422,0.000532632,-0.0191748,9.87129,-0.37589,0.131681
1636273818210031016,-0.000532632,-0.00213053,-0.0234358,9.89763,-0.373495,0.179565
1636273818212059727,0,0.00106526,-0.0218379,9.80426,-0.35913,0.0885855
1636273818213948815,0.00479369,0.00213053,-0.0191748,9.80904,-0.292093,0.11971
1636273818215943446,0.000532632,0.00106526,-0.0175769,9.81623,-0.361524,0.110133
1636273818216940602,0.0015979,0.000532632,-0.0165116,9.81144,-0.387861,0.136469
1636273818219974963,0,-0.00319579,-0.02024,9.87608,-0.349553,0.100556
1636273818222945320,0.00106526,0.00319579,-0.0175769,9.85932,-0.351948,0.126893
1636273818224941913,0.00319579,-0.00213053,-0.0191748,9.83059,-0.316035,0.0837971
1636273818225941682,0.00266316,0.000532632,-0.0229032,9.8689,-0.342371,0.131681
1636273818228961304,0.00213053,0,-0.0234358,9.86411,-0.366313,0.11971
1636273818230959856,0.00319579,0.00106526,-0.0170442,9.89284,-0.35913,0.155623
1636273818233005215,0.00106526,-0.00106526,-0.0149137,9.83538,-0.373495,0.126893
1636273818234940710,0.000532632,0.000532632,-0.0175769,9.85693,-0.337582,0.126893
1636273818235967384,0.00266316,0.00213053,-0.0154463,9.78271,-0.347159,0.0981623
1636273818238984775,0,-0.000532632,-0.0207727,9.84735,-0.409408,0.148441
1636273818239944418,0,-0.000532632,-0.0207727,9.79228,-0.366313,0.131681
1636273818242967044,0.00426106,0.00266316,-0.0186421,9.83538,-0.371101,0.0814029
1636273818244956228,0.00213053,-0.000532632,-0.0191748,9.85932,-0.35913,0.124498
1636273818247996429,0.00266316,0.00106526,-0.0170442,9.8282,-0.373495,0.174777
1636273818249941348,0.00426106,0.00213053,-0.02024,9.82102,-0.3304,0.141258
1636273818251954888,0.00319579,0.000532632,-0.0165116,9.87369,-0.354342,0.148441
1636273818253942787,0.00266316,0.000532632,-0.0207727,9.83299,-0.332794,0.107739
1636273818254945305,0.00319579,0.00266316,-0.0207727,9.7875,-0.339977,0.0790087
1636273818257973039,0.00266316,0,-0.0175769,9.84496,-0.354342,0.146046
1636273818273943238,0.00106526,0,-0.0223706,9.84975,-0.328006,0.122104
1636273818276959818,0.00426106,0.000532632,-0.0250337,9.88566,-0.366313,0.110133
1636273818279957161,0.00266316,-0.00372843,-0.0207727,9.84496,-0.335188,0.158017
1636273818281946209,0.00532632,0.00213053,-0.015979,9.83299,-0.335188,0.0837971
1636273818282946101,0.00372843,0.00213053,-0.02024,9.81383,-0.351948,0.0957681
1636273818285947586,0.00426106,0.00213053,-0.0191748,9.87129,-0.351948,0.117316
1636273818287948081,0,-0.0015979,-0.0223706,9.80426,-0.335188,0.148441
1636273818289945702,0.0015979,0,-0.0181095,9.86651,-0.344765,0.0742203
1636273818291950729,0.000532632,0,-0.0229032,9.86172,-0.351948,0.136469
1636273818292976362,0.00213053,0.00106526,-0.0218379,9.87369,-0.390255,0.0957681
1636273818295969873,0.000532632,-0.0015979,-0.0213053,9.81862,-0.373495,0.148441
1636273818296967149,-0.00266316,0.00106526,-0.0191748,9.80186,-0.320823,0.131681
1636273818299969128,0.00266316,0.00319579,-0.0181095,9.81623,-0.332794,0.150835
1636273818301967024,0.00426106,0.0015979,-0.0170442,9.84496,-0.380678,0.105345
1636273818303967286,0.00266316,0.00106526,-0.0175769,9.87848,-0.339977,0.136469
1636273818306995599,0.00266316,0.000532632,-0.0170442,9.80426,-0.318429,0.107739
1636273818308962656,0.00426106,0.0015979,-0.0186421,9.85693,-0.344765,0.102951
1636273818310975108,0.00319579,0.00106526,-0.0149137,9.81862,-0.387861,0.0766145
1636273818311969157,0.00372843,0.000532632,-0.0186421,9.85932,-0.325611,0.155623
1636273818314978105,0.00319579,0.000532632,-0.0149137,9.79707,-0.363919,0.129287
1636273818315992886,0.00213053,-0.00266316,-0.0175769,9.89045,-0.342371,0.143652
1636273818318947891,0.00479369,0.000532632,-0.0170442,9.78271,-0.37589,0.107739
1636273818320944077,0,0.0015979,-0.0181095,9.83778,-0.366313,0.148441
1636273818322977651,0,0.000532632,-0.0229032,9.81623,-0.325611,0.124498
1636273818325010622,0.00319579,0.00372843,-0.0197074,9.87369,-0.342371,0.129287
1636273818342956664,0.00266316,-0.000532632,-0.0197074,9.82341,-0.335188,0.124498
1636273818344951673,0.00319579,0,-0.0170442,9.79947,-0.347159,0.0957681
1636273818346952361,0.000532632,-0.0015979,-0.015979,9.80426,-0.323217,0.162806
1636273818348946059,0,0.00426106,-0.02024,9.85693,-0.337582,0.153229
1636273818351942674,0.00319579,-0.0015979,-0.0191748,9.77792,-0.347159,0.105345
1636273818353940484,0.00106526,-0.000532632,-0.0154463,9.83538,-0.299275,0.131681
1636273818355948536,0.00532632,0,-0.0213053,9.91918,-0.368707,0.160412
1636273818357944576,0.00639159,0.00106526,-0.02024,9.79947,-0.292093,0.131681
1636273818358942960,0.00266316,0.0015979,-0.0213053,9.85214,-0.349553,0.117316
1636273818361941747,0.00585895,0.00106526,-0.0181095,9.79947,-0.318429,0.124498
1636273818363967568,0.00319579,0,-0.0170442,9.84975,-0.339977,0.112527
1636273818365977554,0.00106526,-0.000532632,-0.0213053,9.86411,-0.37589,0.126893
1636273818367940666,0.00426106,-0.00106526,-0.0149137,9.80186,-0.335188,0.0933739
1636273818368946999,0.00319579,0.0015979,-0.0165116,9.83299,-0.342371,0.114922
1636273818371966577,0.0015979,0,-0.0213053,9.83538,-0.35913,0.124498
1636273818373979529,-0.00213053,0.0015979,-0.0186421,9.81623,-0.299275,0.0694318
1636273818375945867,0.00426106,0.00106526,-0.0186421,9.86411,-0.323217,0.102951
1636273818378018596,0,0.00106526,-0.0181095,9.84735,-0.349553,0.0837971
1636273818380968433,0.00585895,0.00213053,-0.0207727,9.8282,-0.356736,0.0909797
1636273818382949792,0.0015979,0.0015979,-0.0234358,9.85453,-0.332794,0.0957681
1636273818384975333,0.00692422,0.00319579,-0.0186421,9.80665,-0.351948,0.134075
1636273818386964591,0.0015979,-0.000532632,-0.0197074,9.81383,-0.354342,0.114922
1636273818387969660,0.00106526,-0.00106526,-0.015979,9.80904,-0.378284,0.126893
1636273818390974112,0.000532632,-0.00106526,-0.0213053,9.84496,-0.351948,0.134075
1636273818406955085,0.00372843,0.00106526,-0.0181095,9.7875,-0.35913,0.122104
1636273818411943774,0.00532632,0.00266316,-0.0149137,9.84975,-0.328006,0.0766145
1636273818414942586,0.000532632,-0.0015979,-0.0186421,9.84256,-0.3304,0.105345
1636273818415942033,0.00106526,0.00266316,-0.0218379,9.84017,-0.318429,0.129287
1636273818418978894,0.00213053,0.000532632,-0.0186421,9.79228,-0.378284,0.117316
1636273818420972913,0.0015979,0.0015979,-0.0213053,9.8258,-0.323217,0.129287
1636273818422971105,0.000532632,0.00213053,-0.0207727,9.83059,-0.35913,0.112527
1636273818424965724,0.00319579,0.000532632,-0.0191748,9.84496,-0.31364,0.059855
1636273818428000964,0.000532632,0.00426106,-0.0175769,9.82102,-0.354342,0.143652
1636273818430016139,0.00106526,0.00213053,-0.0191748,9.84256,-0.320823,0.126893
1636273818431016807,0.0015979,0.00372843,-0.0186421,9.83538,-0.371101,0.150835
1636273818434018093,0.0015979,0,-0.0133158,9.79468,-0.308852,0.143652
1636273818434998637,0.00426106,0.00266316,-0.0149137,9.81623,-0.387861,0.129287
1636273818437973900,0.00479369,0.000532632,-0.0165116,9.82102,-0.3304,0.146046
1636273818439942717,0.00532632,0.0015979,-0.0143811,9.82102,-0.363919,0.110133
1636273818441969159,0,-0.00266316,-0.0127832,9.76116,-0.373495,0.134075
1636273818444006772,-0.000532632,0.00372843,-0.0186421,9.81383,-0.323217,0.0790087
1636273818444946332,0.00213053,0.00479369,-0.0197074,9.83059,-0.301669,0.141258
1636273818447943110,0.00213053,-0.000532632,-0.0154463,9.85932,-0.328006,0.148441
1636273818449972736,-0.0015979,-0.00266316,-0.0234358,9.87129,-0.368707,0.138864
1636273818452980803,0.00266316,-0.00213053,-0.015979,9.84735,-0.349553,0.138864
1636273818453946493,0,-0.00213053,-0.0186421,9.8282,-0.380678,0.141258
1636273818456942831,0.00213053,0.00479369,-0.0197074,9.85693,-0.366313,0.167594
1636273818472942021,0.00532632,0.000532632,-0.0181095,9.83778,-0.328006,0.134075
1636273818478041744,0.00213053,0.00213053,-0.0207727,9.82102,-0.339977,0.0694318
1636273818480948128,-0.000532632,-0.00106526,-0.0191748,9.85214,-0.354342,0.129287
1636273818482947231,0.00266316,0.00479369,-0.0170442,9.89284,-0.368707,0.150835
1636273818484946187,0.00213053,-0.000532632,-0.0223706,9.87129,-0.354342,0.131681
1636273818486943696,0.00319579,-0.0015979,-0.0165116,9.88566,-0.316035,0.129287
1636273818487947105,0.00426106,0.0015979,-0.0170442,9.84017,-0.337582,0.0909797
1636273818490948555,0.00213053,0.00266316,-0.0186421,9.85453,-0.306458,0.102951
1636273818491949017,0.00213053,0.00372843,-0.0175769,9.88087,-0.306458,0.134075
1636273818494994856,0.00319579,-0.00319579,-0.0207727,9.83299,-0.342371,0.136469
1636273818496944071,0.00692422,0.00372843,-0.0197074,9.84496,-0.332794,0.148441
1636273818498946004,0,-0.0015979,-0.0207727,9.84256,-0.3304,0.114922
1636273818501946621,-0.00213053,0.00106526,-0.0191748,9.88566,-0.349553,0.0790087
1636273818503947557,-0.00266316,-0.00426106,-0.0207727,9.84496,-0.323217,0.126893
1636273818505944489,0.00479369,0.000532632,-0.0133158,9.93115,-0.306458,0.184354
1636273818506947761,0,-0.00266316,-0.0197074,9.8689,-0.306458,0.158017
1636273818509976807,0.00106526,0.00905475,-0.0197074,9.84735,-0.363919,0.105345
1636273818510973110,0.00106526,0.0015979,-0.02024,9.79947,-0.328006,0.0790087
1636273818513983309,0.000532632,0,-0.0191748,9.89045,-0.342371,0.148441
1636273818515972353,0.0015979,0.00106526,-0.0197074,9.80665,-0.351948,0.150835
1636273818517984617,-0.000532632,0.000532632,-0.0213053,9.81144,-0.320823,0.129287
1636273818519943773,0.00319579,0.0015979,-0.0191748,9.82102,-0.328006,0.148441
1636273818520941077,0.00319579,0,-0.0149137,9.88805,-0.349553,0.102951
1636273818524940956,-0.00106526,0.00106526,-0.0154463,9.79707,-0.328006,0.114922
1636273818541947277,0.00213053,0.00213053,-0.0181095,9.82102,-0.342371,0.126893
1636273818543962313,0.00106526,0,-0.0191748,9.83059,-0.354342,0.124498
1636273818544948208,0.00266316,0.00213053,-0.0191748,9.84496,-0.356736,0.148441
1636273818547946585,0.00639159,-0.0015979,-0.0207727,9.7851,-0.301669,0.114922
1636273818548955174,0.00319579,0,-0.0213053,9.81862,-0.328006,0.146046
1636273818551946494,0.00372843,-0.00266316,-0.0191748,9.8258,-0.397437,0.0957681
1636273818553943221,0.00479369,-0.00213053,-0.02024,9.7851,-0.318429,0.114922
1636273818556977451,0.0015979,0.000532632,-0.0175769,9.84735,-0.335188,0.0837971
1636273818558943416,0.00319579,0.0015979,-0.0186421,9.8258,-0.323217,0.150835
1636273818560943882,0.00319579,0.00372843,-0.0170442,9.78271,-0.349553,0.191536
1636273818562945220,0.00266316,0,-0.0165116,9.85453,-0.35913,0.117316
1636273818563969714,0,0.00266316,-0.0186421,9.83059,-0.344765,0.136469
1636273818566980571,0.00106526,-0.00213053,-0.0191748,9.7875,-0.351948,0.0694318
1636273818567975657,0.00213053,-0.00319579,-0.0218379,9.8282,-0.351948,0.146046
1636273818570974872,0.00106526,0,-0.0197074,9.86411,-0.351948,0.126893
1636273818572979332,0.00319579,0.0015979,-0.0207727,9.80904,-0.344765,0.177171
1636273818574977824,0.00266316,0.00372843,-0.0229032,9.85214,-0.294487,0.131681
1636273818577943153,0.00213053,0.000532632,-0.0138484,9.81144,-0.356736,0.129287
1636273818579944896,0.00106526,0.00479369,-0.0186421,9.79707,-0.378284,0.0861913
1636273818581967315,0.00479369,-0.000532632,-0.0213053,9.81144,-0.380678,0.0957681
1636273818582970354,0,0.000532632,-0.0186421,9.83538,-0.308852,0.124498
1636273818585965207,0.00372843,0,-0.0218379,9.81144,-0.347159,0.134075
1636273818586969108,0.0015979,0.00319579,-0.0239685,9.7875,-0.323217,0.0909797
1636273818589977081,0.00479369,0,-0.0191748,9.83299,-0.328006,0.102951
1636273818605979183,0.00266316,-0.0015979,-0.0186421,9.83778,-0.335188,0.11971
1636273818610952927,0.00106526,0.00213053,-0.0181095,9.81144,-0.349553,0.146046
1636273818613949837,0.00106526,0.00106526,-0.0197074,9.8282,-0.325611,0.114922
1636273818615946536,0.00213053,0.0015979,-0.015979,9.86651,-0.371101,0.124498
1636273818617948131,-0.000532632,0.0015979,-0.015979,9.76834,-0.316035,0.141258
1636273818619942220,0.00532632,0,-0.0181095,9.85932,-0.366313,0.136469
1636273818620946656,0.00266316,0.00213053,-0.0213053,9.89524,-0.320823,0.146046
1636273818623975649,0.00213053,0.0015979,-0.0191748,9.81623,-0.378284,0.126893
1636273818625960281,0.00426106,0.00213053,-0.0165116,9.82102,-0.363919,0.11971
1636273818627981222,0.00319579,0.0015979,-0.0143811,9.84017,-0.414197,0.11971
1636273818629975460,0.0015979,-0.00426106,-0.0223706,9.84496,-0.3304,0.131681
1636273818632974926,0.00745685,0.000532632,-0.0175769,9.81862,-0.332794,0.117316
1636273818634984042,0.00479369,0,-0.0197074,9.84017,-0.3304,0.124498
1636273818636961219,0.00479369,-0.00213053,-0.0181095,9.7875,-0.328006,0.126893
1636273818638943393,0,-0.00479369,-0.0165116,9.86172,-0.366313,0.148441
1636273818639944605,0,-0.000532632,-0.0218379,9.84256,-0.3304,0.0909797
1636273818642943700,0.00532632,-0.00266316,-0.02024,9.85693,-0.397437,0.136469
1636273818644953119,0.00319579,0.00106526,-0.0186421,9.84735,-0.356736,0.124498
1636273818646945159,0.00213053,0.00426106,-0.0191748,9.84975,-0.318429,0.141258
1636273818648945863,0.000532632,-0.0015979,-0.0154463,9.83538,-0.304064,0.117316
1636273818650946548,0.00266316,0.0015979,-0.0255663,9.81862,-0.306458,0.131681
1636273818652982624,0.00692422,0.00372843,-0.0143811,9.85214,-0.299275,0.0981623
1636273818655948176,-0.000532632,0.0015979,-0.0186421,9.83778,-0.385466,0.122104
1636273818657942945,0.00745685,-0.000532632,-0.0207727,9.77553,-0.320823,0.162806
1636273818659017086,0.00266316,0.000532632,-0.0229032,9.85932,-0.287304,0.153229
1636273818675947300,0.0015979,0,-0.0218379,9.84496,-0.366313,0.129287
1636273818677997619,0.00266316,0.00213053,-0.0213053,9.78989,-0.344765,0.0933739
1636273818680955502,0.00585895,0,-0.0207727,9.84017,-0.354342,0.136469
1636273818682981585,0.000532632,-0.000532632,-0.0186421,9.80186,-0.294487,0.131681
1636273818684956512,0.00585895,-0.0015979,-0.0186421,9.81623,-0.354342,0.110133
1636273818686955281,0.0015979,0.0015979,-0.0154463,9.84256,-0.347159,0.0407014
1636273818688950448,0.00532632,0.0015979,-0.0170442,9.85932,-0.289698,0.110133
1636273818690950725,-0.0015979,-0.00213053,-0.0175769,9.84017,-0.356736,0.129287
1636273818691948444,0.00106526,0.00213053,-0.0165116,9.85693,-0.335188,0.129287
1636273818694951064,0.00532632,0.000532632,-0.02024,9.85693,-0.347159,0.138864
1636273818696951326,0.00426106,0.000532632,-0.0175769,9.81144,-0.344765,0.162806
1636273818698953441,0.00319579,-0.00372843,-0.0191748,9.7875,-0.342371,0.148441
1636273818700945035,0.00319579,0.00213053,-0.0181095,9.83059,-0.335188,0.107739
1636273818701979436,0.00106526,-0.00319579,-0.0234358,9.87608,-0.351948,0.0957681
1636273818705949985,0.00532632,0,-0.0239685,9.85693,-0.306458,0.1652
1636273818707950294,0.0015979,-0.00106526,-0.0197074,9.83299,-0.356736,0.172383
1636273818709949596,0,-0.00319579,-0.0266316,9.80665,-0.31364,0.126893
1636273818710952619,0.00426106,0.00213053,-0.0229032,9.86411,-0.366313,0.129287
1636273818713949000,0.00213053,-0.00319579,-0.0133158,9.90002,-0.356736,0.117316
1636273818715943974,-0.000532632,0.00319579,-0.0239685,9.84496,-0.368707,0.114922
1636273818717946091,0.00426106,0.00532632,-0.0223706,9.83778,-0.31364,0.141258
1636273818719946025,0.000532632,-0.00213053,-0.0218379,9.78271,-0.325611,0.107739
1636273818720955287,0.00532632,-0.00213053,-0.0191748,9.84496,-0.335188,0.126893
1636273818723947689,0.00426106,0,-0.0213053,9.88087,-0.363919,0.0885855
1636273818724949409,0.00319579,0.00372843,-0.0175769,9.84496,-0.308852,0.117316
1636273818742948200,0.00585895,-0.0015979,-0.0213053,9.84256,-0.318429,0.129287
1636273818743986972,0.00532632,-0.00319579,-0.02024,9.84735,-0.318429,0.126893
1636273818747950997,0.00639159,0.00266316,-0.0186421,9.79468,-0.385466,0.179565
1636273818748965129,0.00426106,0,-0.0191748,9.79707,-0.311246,0.158017
1636273818751956022,0.000532632,-0.000532632,-0.0213053,9.7444,-0.373495,0.0837971
1636273818753945079,0.00426106,0.00106526,-0.0191748,9.76355,-0.452504,0.0933739
1636273818755947973,0.00213053,0.000532632,-0.02024,9.79468,-0.328006,0.148441
1636273818757944557,-0.00213053,-0.000532632,-0.0181095,9.82102,-0.306458,0.107739
1636273818758944789,0.00372843,0,-0.0175769,9.8282,-0.42138,0.138864
1636273818761945968,0.0015979,0,-0.0223706,9.83778,-0.385466,0.117316
1636273818764942456,-0.00213053,0.00372843,-0.0197074,9.87129,-0.344765,0.143652
1636273818766946020,0.00319579,-0.00213053,-0.015979,9.84256,-0.323217,0.143652
1636273818767943876,0.00319579,-0.000532632,-0.0154463,9.79468,-0.366313,0.0981623
1636273818770976950,0.00106526,0.000532632,-0.0255663,9.85693,-0.339977,0.126893
1636273818772978902,0.00319579,0.00213053,-0.015979,9.81862,-0.318429,0.114922
1636273818774976227,0.00426106,0.00266316,-0.015979,9.81383,-0.318429,0.146046
1636273818776975203,0.00532632,0,-0.0229032,9.83778,-0.320823,0.131681
1636273818777978982,0.00213053,-0.00213053,-0.015979,9.85932,-0.368707,0.143652
1636273818780940969,0.00319579,-0.00319579,-0.0133158,9.86411,-0.328006,0.126893
1636273818781944299,0.0015979,-0.00213053,-0.0175769,9.8282,-0.31364,0.1652
1636273818786002455,-0.00426106,-0.00106526,-0.0186421,9.85693,-0.354342,0.100556
1636273818786975172,0.00266316,-0.000532632,-0.02024,9.85932,-0.347159,0.131681
1636273818789998934,0.00372843,0.00106526,-0.0207727,9.80665,-0.311246,0.0885855
1636273818791967183,0.000532632,0.00798948,-0.0239685,9.88566,-0.323217,0.146046
1636273818807947385,0.0015979,0,-0.0181095,9.8282,-0.356736,0.0981623
1636273818810947312,0.00319579,0.0015979,-0.0239685,9.87848,-0.301669,0.110133
1636273818812956917,0.00319579,0.00213053,-0.0207727,9.78989,-0.339977,0.0885855
1636273818814944972,0.00266316,-0.000532632,-0.0197074,9.8258,-0.337582,0.105345
1636273818815955622,0.00479369,0.00213053,-0.0197074,9.90721,-0.349553,0.138864
1636273818818945619,0.000532632,0.00266316,-0.0154463,9.8689,-0.361524,0.114922
1636273818819950540,0.0015979,0.00266316,-0.0165116,9.83778,-0.339977,0.141258
1636273818822980833,0.00266316,0.00372843,-0.0207727,9.81862,-0.318429,0.102951
1636273818824977008,0,0.00426106,-0.026099,9.83299,-0.347159,0.100556
1636273818827970755,0.00372843,-0.0015979,-0.0181095,9.86411,-0.37589,0.148441
1636273818829965661,0.00532632,-0.0015979,-0.0218379,9.79707,-0.270545,0.0909797
1636273818831967104,0.00426106,-0.000532632,-0.0181095,9.87369,-0.28491,0.0933739
1636273818833973559,0.00585895,0.0015979,-0.0191748,9.81623,-0.325611,0.110133
1636273818834973352,0.0015979,0.00266316,-0.0149137,9.83059,-0.390255,0.184354
1636273818837951478,0.00266316,-0.00213053,-0.015979,9.89284,-0.337582,0.110133
1636273818838948223,0,-0.000532632,-0.0175769,9.85932,-0.368707,0.0814029
1636273818841946817,0.00585895,0.00213053,-0.015979,9.83778,-0.287304,0.100556
1636273818843978444,0.00532632,0.0015979,-0.0197074,9.84496,-0.344765,0.122104
1636273818846944712,0.0015979,0.000532632,-0.0218379,9.87369,-0.373495,0.0957681
1636273818848970327,0.00266316,0,-0.0218379,9.84975,-0.347159,0.0837971
1636273818851041334,0.0015979,-0.000532632,-0.0197074,9.90242,-0.349553,0.126893
1636273818852953875,-0.00106526,0.00532632,-0.0181095,9.79707,-0.335188,0.114922
1636273818853948390,0.00213053,0.00692422,-0.0213053,9.88566,-0.361524,0.0407014
1636273818856969704,0.00213053,0.0015979,-0.02024,9.8689,-0.35913,0.11971
1636273818872947663,0.00266316,-0.00106526,-0.0213053,9.85453,-0.339977,0.071826
1636273818875958616,-0.000532632,0.0015979,-0.0218379,9.82341,-0.349553,0.126893
1636273818877948910,0.00266316,-0.000532632,-0.0213053,9.81623,-0.323217,0.126893
1636273818879952257,0.00372843,0.000532632,-0.0197074,9.7851,-0.356736,0.122104
1636273818881948542,0.00266316,0.000532632,-0.0223706,9.84496,-0.339977,0.134075
1636273818883951828,0.00319579,0.000532632,-0.0234358,9.85214,-0.37589,0.136469
1636273818885955066,0.00585895,0.0015979,-0.0197074,9.90481,-0.294487,0.112527
1636273818886945523,0.00319579,0,-0.0149137,9.84017,-0.354342,0.112527
1636273818889989659,0,0.00213053,-0.0191748,9.87608,-0.306458,0.131681
1636273818891963960,0.00532632,0.00266316,-0.0170442,9.83538,-0.356736,0.146046
1636273818893962453,0.00266316,-0.00213053,-0.0213053,9.82341,-0.335188,0.150835
1636273818896007533,0.00213053,0.00213053,-0.02024,9.84256,-0.380678,0.114922
1636273818898951939,0.00319579,-0.00213053,-0.0207727,9.7851,-0.339977,0.143652
1636273818900950088,0.00372843,0.00106526,-0.0197074,9.8258,-0.371101,0.150835
1636273818902984684,0.00532632,0,-0.0181095,9.80904,-0.378284,0.153229
1636273818904951164,0.00426106,0.0015979,-0.0154463,9.87369,-0.366313,0.102951
1636273818905979868,0.00585895,0.000532632,-0.0138484,9.79947,-0.328006,0.131681
1636273818908980190,0.00319579,-0.000532632,-0.0250337,9.84735,-0.380678,0.143652
1636273818910978531,0.00106526,-0.00266316,-0.0186421,9.83299,-0.368707,0.117316
1636273818912987213,0.00319579,-0.00106526,-0.0106526,9.83778,-0.356736,0.102951
1636273818914945267,0,0.000532632,-0.0197074,9.85453,-0.40462,0.107739
1636273818915950423,0.00213053,0.00266316,-0.0191748,9.92636,-0.361524,0.136469
1636273818918951079,0.000532632,0.00532632,-0.0213053,9.88566,-0.344765,0.100556
1636273818921950049,0.0015979,0,-0.0186421,9.81383,-0.390255,0.124498
1636273818923945013,0.00798948,0.0015979,-0.0213053,9.87608,-0.304064,0.102951
1636273818924947134,0.00479369,0,-0.02024,9.84735,-0.332794,0.0957681
1636273818953946133,0.00266316,-0.0015979,-0.0218379,9.86411,-0.371101,0.0742203
1636273818957948648,0.00266316,-0.000532632,-0.0170442,9.84256,-0.344765,0.129287
1636273818959951195,0.000532632,0.00106526,-0.0207727,9.84735,-0.354342,0.122104
1636273818961950727,0.0015979,-0.00106526,-0.0154463,9.84496,-0.344765,0.102951
1636273818962949174,0.00106526,0.0015979,-0.0154463,9.87608,-0.368707,0.0981623
1636273818966952840,0.0015979,0.00266316,-0.02024,9.88087,-0.363919,0.11971
1636273818967952412,0,0.00266316,-0.0186421,9.83299,-0.332794,0.129287
1636273818970950971,0.00319579,0.00213053,-0.0213053,9.79707,-0.371101,0.11971
1636273818972973480,0.00532632,-0.00106526,-0.0197074,9.86172,-0.325611,0.124498
1636273818974953371,0.00106526,0.00372843,-0.0181095,9.84256,-0.316035,0.155623
1636273818976972612,-0.000532632,0.00106526,-0.0197074,9.8282,-0.35913,0.117316
1636273818978976403,0.00319579,0.00213053,-0.0197074,9.84496,-0.347159,0.059855
1636273818980974730,0.00319579,0.00266316,-0.0213053,9.85693,-0.301669,0.162806
1636273818981952039,0.00266316,0.00213053,-0.0154463,9.8258,-0.287304,0.155623
1636273818984949621,-0.00106526,0.0015979,-0.0213053,9.8282,-0.337582,0.107739
1636273818986984061,0.00266316,-0.000532632,-0.0154463,9.83778,-0.371101,0.150835
1636273818988978731,0.000532632,0.00426106,-0.0207727,9.86172,-0.337582,0.0933739
1636273818991951656,0.00106526,-0.00372843,-0.0213053,9.84256,-0.363919,0.0933739
1636273819007952169,0.000532632,0.0015979,-0.0218379,9.91439,-0.368707,0.122104
1636273819013952888,0.000532632,-0.000532632,-0.0181095,9.87129,-0.363919,0.112527
1636273819015041577,-0.00213053,0.00266316,-0.0218379,9.88326,-0.387861,0.167594
1636273819017946204,0.00106526,-0.000532632,-0.0175769,9.83778,-0.361524,0.174777
1636273819019947381,0.00213053,0.000532632,-0.0191748,9.78271,-0.332794,0.11971
1636273819022946152,0.00266316,0.00106526,-0.0223706,9.80426,-0.383072,0.102951
1636273819024949387,0.00479369,0.00213053,-0.0175769,9.8282,-0.387861,0.141258
1636273819026947068,0.00213053,0.00213053,-0.0234358,9.83299,-0.328006,0.136469
1636273819028946167,0.0015979,-0.000532632,-0.0207727,9.88805,-0.320823,0.0933739
1636273819029979232,0.0015979,-0.00106526,-0.0213053,9.82341,-0.35913,0.138864
1636273819032977317,-0.00266316,-0.00213053,-0.0149137,9.81383,-0.308852,0.134075
1636273819033954335,0.000532632,-0.0015979,-0.02024,9.77553,-0.306458,0.110133
1636273819036974807,0.00213053,0.000532632,-0.0165116,9.84975,-0.390255,0.0981623
1636273819038949032,0.00639159,0.000532632,-0.02024,9.79707,-0.325611,0.0981623
1636273819040974851,0.00426106,0.00319579,-0.0197074,9.81623,-0.351948,0.126893
1636273819042972902,0.00266316,-0.0015979,-0.0181095,9.82102,-0.371101,0.122104
1636273819043947486,0.00532632,-0.00106526,-0.0175769,9.83299,-0.351948,0.100556
1636273819046946696,0.00372843,0.00426106,-0.0149137,9.79707,-0.292093,0.114922
1636273819048980048,0.0015979,0.00213053,-0.026099,9.84017,-0.337582,0.059855
1636273819051952399,0.00106526,0.00106526,-0.0223706,9.83299,-0.337582,0.162806
1636273819052962536,0.000532632,0.0015979,-0.0186421,9.90242,-0.351948,0.126893
1636273819055984825,0.0015979,0.00106526,-0.0175769,9.82102,-0.37589,0.0861913
1636273819058004938,0.00213053,0.000532632,-0.0170442,9.74679,-0.409408,0.117316
1636273819075952808,-0.000532632,0.00372843,-0.02024,9.80904,-0.344765,0.136469
1636273819076949358,0.0015979,0.00213053,-0.0175769,9.85214,-0.342371,0.107739
1636273819080954944,0.00106526,-0.00266316,-0.0197074,9.81383,-0.35913,0.107739
1636273819081979687,0.00266316,0.00213053,-0.0186421,9.81623,-0.349553,0.160412
1636273819084948086,0.00372843,0.000532632,-0.0191748,9.84017,-0.325611,0.0861913
1636273819086950071,0.00213053,0.00426106,-0.0175769,9.88566,-0.323217,0.107739
1636273819088951488,0.00319579,0.0015979,-0.0186421,9.88326,-0.316035,0.0885855
1636273819090948028,0.00372843,0.00213053,-0.0197074,9.86651,-0.387861,0.189142
1636273819092946758,0.00479369,-0.0015979,-0.0127832,9.86411,-0.311246,0.11971
1636273819094984029,-0.000532632,0.00266316,-0.0197074,9.85214,-0.395043,0.138864
1636273819095981272,0.00319579,0.0015979,-0.0191748,9.81383,-0.402226,0.150835
1636273819098950262,0.0015979,-0.00106526,-0.0191748,9.89045,-0.356736,0.102951
1636273819100945823,0.00372843,0.00319579,-0.0223706,9.82341,-0.301669,0.136469
1636273819103952248,0.00479369,-0.00106526,-0.0170442,9.7875,-0.306458,0.131681
1636273819105946514,0.000532632,-0.0015979,-0.0223706,9.83299,-0.335188,0.107739
1636273819107985052,0.00426106,0.000532632,-0.0181095,9.81144,-0.301669,0.148441
1636273819109949939,0.0015979,-0.000532632,-0.015979,9.86172,-0.3304,0.167594
1636273819111951816,0.00426106,0.00266316,-0.0181095,9.88566,-0.344765,0.126893
1636273819113949967,0.00319579,-0.000532632,-0.0181095,9.83538,-0.354342,0.0981623
1636273819114950505,0.0015979,0.0015979,-0.0170442,9.86411,-0.347159,0.153229
1636273819117950062,0.00479369,0.0015979,-0.0175769,9.82341,-0.356736,0.141258
1636273819119952003,0.00479369,0.00106526,-0.0181095,9.82341,-0.337582,0.136469
1636273819121951125,0.00585895,-0.000532632,-0.0191748,9.90242,-0.354342,0.136469
1636273819124948649,0.0015979,0.00106526,-0.0175769,9.86172,-0.366313,0.11971
1636273819126944459,-0.00266316,0.00372843,-0.0229032,9.81623,-0.306458,0.114922
1636273819143952095,0.00213053,-0.000532632,-0.0170442,9.87608,-0.349553,0.0837971
1636273819145958972,0.00372843,-0.00319579,-0.0175769,9.79468,-0.361524,0.100556
1636273819148237913,0.00852212,-0.000532632,-0.0229032,9.80186,-0.337582,0.0837971
1636273819148950420,0.00106526,-0.000532632,-0.0218379,9.85453,-0.454898,0.124498
1636273819151948094,0.00532632,0.00372843,-0.0197074,9.7875,-0.371101,0.114922
1636273819152946297,0.0015979,0.0015979,-0.0213053,9.8282,-0.344765,0.071826
1636273819155946437,0.00372843,0.0015979,-0.0165116,9.88087,-0.371101,0.131681
1636273819157945933,0.00426106,0.00213053,-0.0197074,9.81623,-0.347159,0.0933739
1636273819160985856,0.00426106,0,-0.0239685,9.79947,-0.344765,0.124498
1636273819162947064,0.0015979,0.00266316,-0.0143811,9.81383,-0.361524,0.126893
1636273819164946889,0.00266316,-0.000532632,-0.0197074,9.88805,-0.308852,0.112527
1636273819166946338,0.00745685,0.00213053,-0.015979,9.85693,-0.368707,0.11971
1636273819167945850,0.00958738,-0.00106526,-0.0197074,9.87848,-0.344765,0.112527
1636273819170946961,0.00319579,0.0015979,-0.0175769,9.84017,-0.308852,0.174777
1636273819171947448,0.00319579,0.000532632,-0.0170442,9.77792,-0.332794,0.0981623
1636273819174946075,0.00319579,0.00213053,-0.0207727,9.78989,-0.349553,0.117316
1636273819176947128,0.00266316,0.00106526,-0.0165116,9.88805,-0.356736,0.150835
1636273819178946320,0.00479369,0.00319579,-0.0175769,9.85693,-0.354342,0.136469
1636273819180946020,0.00426106,0.00106526,-0.0186421,9.8282,-0.368707,0.138864
1636273819181945781,0.00479369,0.00106526,-0.0197074,9.81144,-0.332794,0.124498
1636273819184945087,-0.000532632,0.00266316,-0.0234358,9.84017,-0.368707,0.129287
1636273819186950804,0.00106526,0.000532632,-0.0165116,9.85693,-0.351948,0.107739
1636273819189948458,0.00319579,-0.00106526,-0.0117179,9.78031,-0.390255,0.110133
1636273819190952196,0.00266316,0.00213053,-0.0197074,9.84017,-0.335188,0.131681
1636273819193947562,0.0015979,-0.00106526,-0.0175769,9.7851,-0.351948,0.0837971
1636273819209946330,0.00692422,0.000532632,-0.0154463,9.85932,-0.316035,0.11971
1636273819213281635,0.00426106,-0.000532632,-0.0197074,9.7875,-0.332794,0.11971
1636273819214949035,0.00479369,0,-0.0229032,9.80186,-0.318429,0.105345
1636273819216954672,0.00426106,0.00426106,-0.0149137,9.84496,-0.354342,0.105345
1636273819218948130,0.00319579,-0.00106526,-0.02024,9.79228,-0.354342,0.0885855
1636273819219945814,0.00266316,-0.00213053,-0.0218379,9.88326,-0.378284,0.117316
1636273819222977725,0.000532632,-0.00213053,-0.0186421,9.8689,-0.354342,0.126893
1636273819224970288,0.00213053,0,-0.0154463,9.83059,-0.351948,0.112527
1636273819227991830,0.00372843,0.000532632,-0.0186421,9.73482,-0.347159,0.0550666
1636273819229009875,0.00266316,-0.00106526,-0.0207727,9.86411,-0.347159,0.110133
1636273819231984451,0,0,-0.0191748,9.79468,-0.356736,0.160412
1636273819233972010,0.00266316,0.0015979,-0.0213053,9.75637,-0.363919,0.160412
1636273819235966155,0.00319579,0.00266316,-0.0191748,9.81862,-0.301669,0.0790087
1636273819237972494,0.00213053,-0.00106526,-0.0213053,9.84735,-0.37589,0.122104
1636273819238974218,0.0015979,0.000532632,-0.0186421,9.79228,-0.40462,0.150835
1636273819241968763,0.000532632,0.00319579,-0.02024,9.83059,-0.395043,0.100556
1636273819243973270,0.00266316,0,-0.0154463,9.84735,-0.351948,0.129287
1636273819245978514,-0.00106526,0.000532632,-0.0213053,9.78031,-0.40462,0.0694318
1636273819247948966,0.00745685,0.00106526,-0.0170442,9.80904,-0.387861,0.129287
1636273819250948331,0,0.00106526,-0.0218379,9.88087,-0.3304,0.172383
1636273819252980829,0.00213053,0.00106526,-0.02024,9.80904,-0.351948,0.11971
1636273819254954848,0.00426106,0.00106526,-0.0223706,9.84735,-0.411803,0.117316
1636273819256951198,0.00213053,0.00213053,-0.0223706,9.82102,-0.344765,0.114922
1636273819257948570,0.00798948,0.00213053,-0.0234358,9.84017,-0.337582,0.143652
1636273819274949778,-0.000532632,0.00106526,-0.0213053,9.8689,-0.356736,0.114922
1636273819277118947,0.00213053,-0.00106526,-0.0186421,9.86651,-0.308852,0.146046
1636273819280016198,0.00585895,-0.00319579,-0.0138484,9.8258,-0.395043,0.0885855
1636273819281952844,0.00372843,0.00426106,-0.0175769,9.82341,-0.332794,0.129287
1636273819283960015,0.00213053,0.00319579,-0.0213053,9.83778,-0.332794,0.117316
1636273819286008185,0.00479369,-0.00319579,-0.0191748,9.78031,-0.337582,0.136469
1636273819287950917,-0.00106526,0,-0.0207727,9.8282,-0.304064,0.102951
1636273819289947383,-0.00106526,0.000532632,-0.0191748,9.77074,-0.385466,0.126893
1636273819290947030,-0.00106526,0,-0.0122505,9.83299,-0.31364,0.155623
1636273819293948533,0.00266316,0.00106526,-0.0143811,9.85214,-0.368707,0.107739
1636273819295954902,0.00426106,0.00745685,-0.02024,9.88805,-0.323217,0.100556
1636273819297949011,0.0015979,0.00266316,-0.0181095,9.76834,-0.342371,0.0646434
1636273819299947279,-0.000532632,-0.0015979,-0.0186421,9.85932,-0.349553,0.174777
1636273819300957524,0.00266316,0.00106526,-0.0239685,9.80665,-0.354342,0.0957681
1636273819304948829,0.00266316,0,-0.0191748,9.80426,-0.323217,0.143652
1636273819306982379,0.00372843,-0.00106526,-0.0143811,9.86411,-0.349553,0.148441
1636273819308980681,0.00532632,0.00426106,-0.0175769,9.86651,-0.332794,0.158017
1636273819309977147,0.00372843,-0.00266316,-0.0154463,9.85214,-0.311246,0.129287
1636273819312975158,0.00319579,0.00106526,-0.0197074,9.81862,-0.289698,0.141258
1636273819314951921,0.00213053,0.00266316,-0.0229032,9.87608,-0.31364,0.0694318
1636273819316947771,0.00585895,0.000532632,-0.0175769,9.7851,-0.368707,0.114922
1636273819318948029,0.00266316,0.00106526,-0.0170442,9.85693,-0.335188,0.129287
1636273819319993452,0.00372843,-0.000532632,-0.0223706,9.92157,-0.347159,0.0526724
1636273819322949413,0.00213053,-0.0015979,-0.0223706,9.73961,-0.378284,0.0694318
1636273819323952125,0.00426106,0.0015979,-0.0223706,9.82102,-0.351948,0.169988
1636273819341954930,0.00798948,0,-0.0197074,9.82102,-0.347159,0.126893
1636273819342955260,0.00532632,-0.00319579,-0.0165116,9.85932,-0.347159,0.110133
1636273819345952687,0.00426106,0.00106526,-0.0186421,9.86172,-0.335188,0.100556
1636273819347953482,0,0.000532632,-0.0207727,9.77074,-0.402226,0.122104
1636273819349954041,0.00426106,-0.00106526,-0.0186421,9.83538,-0.378284,0.143652
1636273819352952562,0.00585895,0.00106526,-0.0197074,9.85453,-0.332794,0.0502782
1636273819354955932,0.00532632,-0.000532632,-0.015979,9.85214,-0.395043,0.0861913
1636273819356981332,0.00213053,-0.00106526,-0.02024,9.80665,-0.304064,0.0861913
1636273819357959744,0.00213053,0.00266316,-0.0154463,9.83778,-0.308852,0.124498
1636273819360949892,0.0015979,0.00106526,-0.0170442,9.80186,-0.339977,0.174777
1636273819361951770,0.00532632,-0.00213053,-0.0197074,9.80904,-0.37589,0.126893
1636273819364951375,0.00372843,0.00319579,-0.0197074,9.84735,-0.356736,0.0861913
1636273819366982914,0.00372843,0.00852212,-0.0170442,9.87848,-0.363919,0.155623
1636273819368980281,0.00585895,0.00852212,-0.0213053,9.86172,-0.311246,0.0957681
1636273819370951353,0.0015979,0.000532632,-0.0143811,9.85693,-0.349553,0.129287
1636273819371948950,0.00532632,-0.00372843,-0.0154463,9.79468,-0.342371,0.148441
1636273819375956575,0.00266316,-0.00106526,-0.0213053,9.77553,-0.344765,0.110133
1636273819376970911,-0.000532632,-0.0015979,-0.0207727,9.78989,-0.328006,0.117316
1636273819379977994,0.00106526,0.00213053,-0.0186421,9.81383,-0.35913,0.138864
1636273819381947693,-0.00106526,0.00106526,-0.0191748,9.84975,-0.318429,0.102951
1636273819383977540,-0.000532632,0.00266316,-0.0223706,9.8258,-0.363919,0.0957681
1636273819385971034,0.00266316,0.00372843,-0.0234358,9.8282,-0.325611,0.136469
1636273819387992596,0.00213053,0,-0.0149137,9.8258,-0.354342,0.138864
1636273819389981272,0.00266316,0.0015979,-0.0191748,9.82341,-0.335188,0.174777
1636273819407951499,0.00213053,-0.00266316,-0.0213053,9.85214,-0.31364,0.114922
1636273819409404158,0.00372843,-0.00106526,-0.0154463,9.84975,-0.356736,0.131681
1636273819412951045,0.000532632,-0.0015979,-0.0170442,9.80426,-0.356736,0.105345
1636273819414979186,0.00745685,0,-0.0197074,9.83299,-0.306458,0.148441
1636273819416952394,0.00479369,-0.000532632,-0.02024,9.83538,-0.31364,0.184354
1636273819418951223,0.00532632,0.00213053,-0.0149137,9.83778,-0.35913,0.148441
1636273819419949614,0.00745685,0.000532632,-0.0175769,9.86651,-0.328006,0.136469
1636273819422985436,0.00372843,0.0015979,-0.02024,9.86172,-0.356736,0.105345
1636273819423990873,0.00106526,0,-0.0191748,9.81383,-0.380678,0.0814029
1636273819426951847,0.00319579,0.00745685,-0.02024,9.85214,-0.368707,0.102951
1636273819428950998,0.00266316,0,-0.0170442,9.8282,-0.311246,0.117316
1636273819431952846,0.00106526,0.00266316,-0.0223706,9.89284,-0.368707,0.158017
1636273819433950775,-0.0015979,0.000532632,-0.02024,9.81383,-0.371101,0.131681
1636273819435952883,0,-0.0015979,-0.02024,9.74679,-0.380678,0.158017
1636273819437954166,0.00266316,0.00319579,-0.02024,9.86172,-0.335188,0.107739
1636273819438947824,0.00319579,0.0015979,-0.0191748,9.80904,-0.361524,0.138864
1636273819441945782,0.00532632,-0.00213053,-0.0207727,9.87608,-0.361524,0.148441
1636273819442945923,0.0015979,-0.00106526,-0.0197074,9.82341,-0.31364,0.117316
1636273819445953326,0.00213053,0.00213053,-0.0170442,9.84975,-0.323217,0.0814029
1636273819447951751,0.00639159,0.00213053,-0.0213053,9.79228,-0.337582,0.158017
1636273819449972303,0.00372843,0.00266316,-0.0170442,9.80665,-0.316035,0.110133
1636273819451971829,0.00266316,-0.00106526,-0.0181095,9.85453,-0.328006,0.184354
1636273819454953344,0.00106526,0.00266316,-0.0175769,9.81623,-0.35913,0.102951
1636273819456948035,0.00106526,0.00266316,-0.0186421,9.87129,-0.354342,0.143652
1636273819457973536,0.00639159,0.00213053,-0.0165116,9.79468,-0.392649,0.0790087
1636273819475948323,0.00372843,0,-0.0191748,9.82102,-0.351948,0.126893
1636273819476963534,0,0.000532632,-0.0218379,9.86651,-0.342371,0.107739
1636273819479956023,0.0015979,0.0015979,-0.0181095,9.80186,-0.337582,0.174777
1636273819480958181,0.00479369,0.00106526,-0.0186421,9.84735,-0.3304,0.150835
1636273819483950088,0.00106526,0.000532632,-0.02024,9.83538,-0.3304,0.136469
1636273819485949280,0.00372843,0.0015979,-0.0218379,9.88326,-0.296881,0.150835
1636273819487952858,0.00106526,0,-0.0218379,9.87848,-0.304064,0.146046
1636273819490006336,0,0.00479369,-0.0170442,9.84017,-0.296881,0.105345
1636273819490970893,0.00213053,0.00372843,-0.0197074,9.87369,-0.323217,0.0933739
1636273819493956046,-0.0015979,-0.00266316,-0.0223706,9.79947,-0.368707,0.102951
1636273819496020174,0.00372843,-0.0015979,-0.0197074,9.80904,-0.339977,0.122104
1636273819498985618,-0.0015979,0.00532632,-0.0122505,9.88805,-0.316035,0.136469
1636273819500009897,0.00213053,-0.00266316,-0.0170442,9.86411,-0.378284,0.0526724
1636273819502958060,0.00585895,0.00106526,-0.0170442,9.83299,-0.351948,0.143652
1636273819504955775,-0.000532632,0.00479369,-0.0207727,9.84017,-0.325611,0.0885855
1636273819506975347,0.00213053,0.00266316,-0.0223706,9.8258,-0.361524,0.112527
1636273819508971824,0.000532632,0.00106526,-0.0197074,9.79468,-0.344765,0.126893
1636273819509980388,0.00479369,0.0015979,-0.02024,9.79228,-0.344765,0.143652
1636273819512990652,0,0.00585895,-0.02024,9.80665,-0.347159,0.0837971
1636273819514971618,0.00479369,-0.000532632,-0.02024,9.79228,-0.296881,0.126893
1636273819516973683,0.00213053,-0.00213053,-0.0181095,9.79228,-0.332794,0.129287
1636273819518972419,0.00585895,-0.00213053,-0.0207727,9.78271,-0.335188,0.110133
1636273819520989206,0.00106526,0.00213053,-0.0186421,9.7851,-0.280122,0.112527
1636273819523952507,0.00319579,0.0015979,-0.0175769,9.7444,-0.339977,0.129287
1636273819525954333,0.0015979,0.00213053,-0.0175769,9.80186,-0.361524,0.11971
1636273819527983878,0.00372843,0,-0.0218379,9.86651,-0.392649,0.110133
1636273819559009087,0.00426106,-0.000532632,-0.0197074,9.7875,-0.342371,0.11971
1636273819561957235,0.00266316,-0.00106526,-0.0218379,9.88566,-0.311246,0.102951
1636273819563953713,0.0015979,0.00213053,-0.0207727,9.85453,-0.342371,0.141258
1636273819566958383,0.00106526,0.00426106,-0.0197074,9.8282,-0.320823,0.122104
1636273819568955481,0,-0.00106526,-0.0229032,9.79468,-0.3304,0.148441
1636273819570960130,0.00213053,0.0015979,-0.0181095,9.83059,-0.409408,0.112527
1636273819571954729,0.00426106,0.000532632,-0.0175769,9.80665,-0.378284,0.0885855
1636273819575015160,0.00266316,0.00213053,-0.0207727,9.85453,-0.301669,0.100556
1636273819575949846,0.00213053,0.0015979,-0.0250337,9.8258,-0.320823,0.129287
1636273819578948194,-0.0015979,0.00106526,-0.0149137,9.78271,-0.371101,0.105345
1636273819580945903,0.00319579,-0.00319579,-0.015979,9.86172,-0.361524,0.0790087
1636273819582971560,-0.00372843,0.000532632,-0.0207727,9.84975,-0.35913,0.158017
1636273819585949729,0.00372843,-0.0015979,-0.0197074,9.88566,-0.371101,0.114922
1636273819587956520,0.00266316,0.00266316,-0.0207727,9.88805,-0.354342,0.124498
1636273819589980305,0.00319579,0.00266316,-0.0165116,9.84496,-0.320823,0.0622492
1636273819590953637,0.00266316,-0.00319579,-0.0191748,9.85693,-0.361524,0.124498
1636273819593950283,0.0015979,-0.000532632,-0.0143811,9.81862,-0.325611,0.129287
1636273819611951770,0.00213053,-0.00106526,-0.0191748,9.85214,-0.356736,0.102951
1636273819613957338,0,-0.000532632,-0.0213053,9.90002,-0.299275,0.169988
1636273819615955859,0.00639159,-0.000532632,-0.0149137,9.83299,-0.337582,0.110133
1636273819617955565,0.00213053,0.000532632,-0.015979,9.86411,-0.318429,0.153229
1636273819618953751,0.00266316,-0.000532632,-0.0175769,9.81623,-0.344765,0.0981623
1636273819621954455,0.000532632,0,-0.0218379,9.83059,-0.373495,0.117316
1636273819623948037,0.000532632,0.0015979,-0.0197074,9.82102,-0.337582,0.114922
1636273819625950508,0.00319579,0.0015979,-0.0207727,9.85214,-0.342371,0.134075
1636273819627952813,0.00372843,0.00426106,-0.0223706,9.8258,-0.349553,0.112527
1636273819630988277,0.00319579,-0.00372843,-0.0207727,9.84735,-0.282516,0.158017
1636273819632981814,0.0015979,0.000532632,-0.0165116,9.85932,-0.296881,0.122104
1636273819633981774,-0.000532632,0.00213053,-0.0229032,9.84975,-0.368707,0.138864
1636273819636954547,0.00585895,0.000532632,-0.0175769,9.87129,-0.328006,0.117316
1636273819637982087,0.00532632,0,-0.02024,9.80186,-0.356736,0.105345
1636273819640983215,0.00106526,0.00319579,-0.0186421,9.82102,-0.354342,0.117316
1636273819642949389,0.00479369,-0.0015979,-0.0186421,9.84735,-0.354342,0.117316
1636273819644951846,0.00426106,0.00319579,-0.0154463,9.84735,-0.380678,0.107739
1636273819646948697,0.00213053,-0.00106526,-0.0186421,9.84975,-0.354342,0.162806
1636273819647950779,0.00426106,0.0015979,-0.0197074,9.88326,-0.325611,0.112527
1636273819650948812,0.00319579,0.00372843,-0.0207727,9.84735,-0.378284,0.071826
1636273819651949292,0.00372843,0.00532632,-0.0197074,9.83059,-0.339977,0.0837971
1636273819655986425,0.00532632,0.00213053,-0.0170442,9.83538,-0.335188,0.131681
1636273819656968506,0.00639159,-0.00213053,-0.0181095,9.81862,-0.349553,0.19393
1636273819659951580,0.00426106,0.00426106,-0.0213053,9.75637,-0.392649,0.110133
1636273819675968197,0.00106526,0.00266316,-0.0218379,9.88326,-0.296881,0.105345
1636273819679072458,0.0015979,0.00213053,-0.0229032,9.80186,-0.337582,0.107739
1636273819680952897,0.00639159,-0.0015979,-0.0165116,9.86172,-0.335188,0.131681
1636273819682952005,0.00479369,-0.00106526,-0.0207727,9.81383,-0.318429,0.105345
1636273819685959067,0.00213053,-0.00213053,-0.0154463,9.86411,-0.268151,0.114922
1636273819689993188,0.00213053,0.00372843,-0.0207727,9.85932,-0.275333,0.117316
1636273819690947959,-0.000532632,0.000532632,-0.0213053,9.77074,-0.304064,0.124498
1636273819693948064,-0.000532632,0.00106526,-0.02024,9.82341,-0.332794,0.167594
1636273819694983963,-0.00106526,0.00106526,-0.0186421,9.82102,-0.349553,0.143652
1636273819697951455,0.00319579,0.000532632,-0.0213053,9.7851,-0.306458,0.11971
1636273819699948509,0.00319579,0.000532632,-0.0234358,9.80665,-0.318429,0.143652
1636273819701949813,0,0.000532632,-0.0223706,9.85214,-0.28491,0.0957681
1636273819703949334,0.000532632,0.000532632,-0.0186421,9.87848,-0.335188,0.11971
1636273819704948454,0.00266316,-0.00213053,-0.0191748,9.79947,-0.347159,0.0837971
1636273819707952392,0.00372843,-0.00106526,-0.0229032,9.81144,-0.311246,0.138864
1636273819709949992,0.00692422,-0.00266316,-0.0165116,9.78989,-0.320823,0.112527
1636273819711986789,0.00479369,-0.00213053,-0.0213053,9.79947,-0.349553,0.158017
1636273819714033607,-0.000532632,-0.00106526,-0.015979,9.80665,-0.363919,0.0861913
1636273819716969894,0.00266316,0.00479369,-0.0213053,9.81383,-0.366313,0.124498
1636273819718985015,0,0.0015979,-0.0181095,9.85214,-0.335188,0.136469
1636273819720971171,0.000532632,0.00213053,-0.0170442,9.86172,-0.354342,0.102951
1636273819723026999,0.00319579,-0.00266316,-0.0138484,9.82341,-0.387861,0.0885855
1636273819724006912,0.00213053,-0.000532632,-0.0181095,9.85453,-0.349553,0.143652
1636273819726951386,0.00426106,0.00213053,-0.0170442,9.83059,-0.361524,0.122104
1636273819743026713,0.00426106,0.0015979,-0.0213053,9.79228,-0.363919,0.148441
1636273819744981534,0.00106526,0.000532632,-0.0175769,9.79468,-0.3304,0.158017
1636273819747977258,0.00479369,0,-0.0213053,9.87369,-0.380678,0.110133
1636273819749960576,0.00106526,0.000532632,-0.0229032,9.86172,-0.323217,0.126893
1636273819751959452,0.00479369,0.0015979,-0.0170442,9.8282,-0.347159,0.158017
1636273819753956552,0.00213053,0.00106526,-0.0143811,9.80426,-0.320823,0.110133
1636273819755950647,0.000532632,-0.000532632,-0.0191748,9.82341,-0.320823,0.160412
1636273819756972416,-0.00106526,-0.000532632,-0.0207727,9.83778,-0.3304,0.0957681
1636273819759956896,0.0015979,0.0015979,-0.0143811,9.84975,-0.318429,0.112527
1636273819761958743,0.00692422,0.00372843,-0.0197074,9.85453,-0.332794,0.146046
1636273819763952073,0.00213053,-0.00106526,-0.0197074,9.8689,-0.347159,0.100556
1636273819765952510,-0.0015979,0.00213053,-0.0207727,9.89045,-0.366313,0.138864
1636273819766951145,0.00426106,0.0015979,-0.0149137,9.8282,-0.361524,0.129287
1636273819770954595,0.0015979,0.00106526,-0.0191748,9.80426,-0.378284,0.150835
1636273819772956104,-0.00106526,0.00319579,-0.0175769,9.82102,-0.371101,0.112527
1636273819774952755,-0.000532632,-0.0015979,-0.0218379,9.83778,-0.287304,0.0407014
1636273819775963801,0.0015979,0.00213053,-0.0218379,9.82102,-0.296881,0.0837971
1636273819778957537,0.00106526,0.000532632,-0.0197074,9.82102,-0.339977,0.0814029
1636273819780972920,0.00213053,-0.000532632,-0.0175769,9.80186,-0.390255,0.160412
1636273819782968472,-0.00106526,-0.00266316,-0.0186421,9.79947,-0.380678,0.153229
1636273819784968168,0.00213053,-0.00106526,-0.0186421,9.84017,-0.332794,0.0790087
1636273819787972361,0.00266316,0.00585895,-0.0234358,9.84017,-0.349553,0.0502782
1636273819789952375,0.000532632,0,-0.0191748,9.78989,-0.344765,0.0957681
1636273819791969933,0.0015979,-0.000532632,-0.0191748,9.77553,-0.320823,0.0837971
1636273819808953910,0.00798948,0.00372843,-0.0213053,9.82102,-0.296881,0.0766145
1636273819813957794,0.00479369,0.00532632,-0.0175769,9.52892,-0.172383,0.134075
1636273819816955436,0.00692422,0.00532632,-0.0191748,9.99579,-0.428562,0.0885855
1636273819818950948,0.00479369,0.00692422,-0.0276969,10.1107,-0.325611,0.332794
1636273819820954541,0.00532632,0.0117179,-0.0229032,9.9096,-0.189142,0.0550666
1636273819822950257,-0.00372843,-0.0111853,-0.0170442,9.71088,-0.402226,0.208296
1636273819823953639,0.000532632,0,-0.0170442,9.77313,-0.486023,0.148441
1636273819826949431,0.0015979,-0.00106526,-0.0197074,9.9096,-0.251391,0.0861913
1636273819827953294,0.00479369,0.00692422,-0.0197074,9.93833,-0.217872,0.21069
1636273819830976054,-0.000532632,0.0127832,-0.0181095,10.1107,-0.497994,0.0885855
1636273819832951768,-0.0015979,-0.00106526,-0.0197074,9.71328,-0.198719,0.268151
1636273819834975030,-0.00106526,-0.00426106,-0.0197074,9.60314,-0.268151,0.110133
1636273819837952133,0.0015979,-0.00106526,-0.0207727,9.91918,-0.347159,0.150835
1636273819839951203,0.00106526,0.00745685,-0.0213053,9.93354,-0.232238,0.0407014
1636273819841949179,0.00585895,0.00585895,-0.0207727,9.92875,-0.335188,0.143652
1636273819842957274,0.00319579,0.00639159,-0.0197074,9.89524,-0.426168,0.21069
1636273819845955040,0,-0.00692422,-0.015979,9.7037,-0.363919,0.160412
1636273819846983746,0.0015979,-0.00905475,-0.0175769,9.69412,-0.339977,0.141258
1636273819850003072,0.0015979,-0.00639159,-0.0175769,9.9527,-0.418985,0.0622492
1636273819852009192,0.00213053,0.00213053,-0.0186421,9.87129,-0.251391,0.11971
1636273819854001436,0.00319579,0.00958738,-0.0154463,9.86411,-0.304064,0.0814029
1636273819855958439,0.00585895,0.00106526,-0.0218379,9.82341,-0.373495,0.141258
1636273819856957142,0.00532632,0.00266316,-0.015979,9.73243,-0.328006,0.134075
1636273819860951925,0.00266316,-0.00585895,-0.0197074,9.85453,-0.363919,0.160412
1636273819861951945,0.00479369,-0.00639159,-0.0218379,10.003,-0.31364,0.150835
1636273819878978100,0.00479369,-0.00266316,-0.0165116,9.79468,-0.366313,0.117316
1636273819881627567,0.00106526,-0.000532632,-0.0207727,9.74201,-0.323217,0.129287
1636273819882992504,0.0015979,-0.00213053,-0.0186421,9.72525,-0.328006,0.0981623
1636273819884954081,0.00639159,0.00106526,-0.0186421,9.84256,-0.342371,0.136469
1636273819887986303,0,0.00106526,-0.0186421,9.78989,-0.363919,0.0167594
1636273819889978606,0.00319579,-0.00266316,-0.0207727,9.71328,-0.35913,0.179565
1636273819891955495,0.00532632,0.00106526,-0.0181095,9.69652,-0.37589,0.0909797
1636273819893953477,-0.00266316,-0.00426106,-0.0213053,9.79468,-0.347159,0.138864
1636273819894952785,0.00213053,0,-0.0186421,9.81144,-0.344765,0.059855
1636273819897991291,0.00372843,0.00106526,-0.0197074,9.82341,-0.258574,0.172383
1636273819899956264,0.00426106,0.00106526,-0.0186421,9.83059,-0.344765,0.059855
1636273819901957400,0.00585895,-0.0015979,-0.0165116,9.7875,-0.289698,0.131681
1636273819903951684,0.00585895,0.00319579,-0.0218379,9.83778,-0.430956,0.0742203
1636273819905957125,0.00426106,-0.0015979,-0.0207727,9.7444,-0.40462,0.0957681
1636273819907957122,0.00372843,0.0015979,-0.0213053,9.84256,-0.392649,0.0909797
1636273819910952383,0.00266316,0.00106526,-0.0175769,9.79228,-0.361524,0.150835
1636273819912953560,0.0015979,0.00106526,-0.0186421,9.87129,-0.28491,0.11971
1636273819913949402,0.00319579,-0.00106526,-0.0197074,9.89045,-0.296881,0.11971
1636273819916949615,0.00319579,0.00319579,-0.0207727,9.87369,-0.363919,0.150835
1636273819918948840,0.00213053,0,-0.0186421,9.88087,-0.354342,0.100556
1636273819920960292,0.00532632,0.00213053,-0.0218379,9.91678,-0.337582,0.169988
1636273819922949904,0.00213053,-0.0015979,-0.0213053,9.84017,-0.371101,0.102951
1636273819923979649,0.00426106,-0.00106526,-0.0165116,9.87848,-0.378284,0.129287
1636273819926985216,0.00213053,0.00266316,-0.0175769,9.83538,-0.368707,0.138864
1636273819927980892,0.00426106,-0.0133158,-0.0229032,10.0556,-0.189142,0.280122
1636273819945968030,0.398942,0.0841559,-0.036219,10.0102,-2.42533,3.85227
1636273819947312240,0.423443,0.0591222,-0.0308927,9.94551,-2.08296,3.57454
1636273819950116747,0.492152,-0.0122505,-0.0276969,9.97664,-1.30005,3.44526
1636273819951958765,0.544883,0.0111853,-0.03036,9.85932,-0.634463,3.32315
1636273819953962489,0.567253,0.0394148,-0.0282295,9.89284,-0.347159,2.9736
1636273819956022941,0.579504,0.0340885,-0.0447411,10.0556,0.0646434,2.478
1636273819958955139,0.586428,0.0191748,-0.0367516,9.53371,0.37589,2.13802
1636273819960952755,0.57258,0,-0.0324906,9.91199,0.775721,1.84114
1636273819961953108,0.55447,0.00798948,-0.0351537,9.91678,0.78051,1.76213
1636273819964950390,0.525175,0.0569916,-0.0287621,9.80904,1.02232,1.52511
1636273819965951696,0.509729,0.056459,-0.0266316,9.90002,1.02472,1.22823
1636273819968951939,0.480434,0.026099,-0.0324906,9.85453,1.01514,1.01993
1636273819970997679,0.446346,0.0740359,-0.0255663,9.74919,0.881066,1.07978
1636273819972985608,0.422377,0.113451,-0.0255663,9.85453,0.835576,0.969652
1636273819974989120,0.370179,0.098537,-0.015979,10.0365,0.742203,0.383072
1636273819975951961,0.342483,0.0655138,-0.0170442,9.88087,0.605733,0.28491
1636273819979950907,0.239684,0.0388822,-0.0213053,9.6199,0.411803,0.423774
1636273819980950609,0.198672,0.0639159,-0.0276969,9.6606,0.344765,0.325611
1636273819983951343,0.108657,0.0607201,-0.0292948,9.75398,0.186748,-0.00718261
1636273819984971597,0.066579,0.036219,-0.0308927,9.85932,0.167594,-0.0550666
1636273819987956887,-0.0229032,0.0287621,-0.0271642,9.82341,0.112527,0.112527
1636273819989957651,-0.112918,0.056459,-0.0255663,9.80186,0.0670376,0.0407014
1636273819991955803,-0.157659,0.0719054,-0.0138484,9.77074,0.0766145,-0.122104
1636273819993953487,-0.251402,0.0559264,-0.00798948,9.89045,0.0790087,-0.402226
1636273820012949394,-0.925715,0.00106526,-0.0207727,9.77553,-0.916979,-1.01275
1636273820013956477,-0.945422,0.00585895,-0.0170442,9.7851,-0.885855,-0.833182
1636273820017955493,-0.986435,0.036219,-0.0133158,10.0269,-0.586579,-0.912191
1636273820018961649,-0.9875,0.0239685,-0.0165116,9.92875,-0.545878,-0.933739
1636273820022965499,-0.97738,0.02024,-0.0154463,9.79707,-0.402226,-0.826
1636273820025957260,-0.96513,0.0149137,-0.0175769,9.81383,-0.280122,-0.881066
1636273820027971491,-0.947553,0.0186421,-0.0138484,9.80426,-0.227449,-0.859518
1636273820029977278,-0.938498,0.0127832,-0.0154463,9.81383,-0.162806,-0.835576
1636273820031953264,-0.916127,0.0165116,-0.01012,9.75877,-0.155623,-0.799663
1636273820032955489,-0.901214,0.0197074,-0.0149137,9.72764,-0.105345,-0.715866
1636273820035951381,-0.870321,0.0223706,-0.0127832,9.88326,-0.0885855,-0.85473
1636273820037979480,-0.83783,0.0106526,-0.0111853,9.95749,-0.0526724,-0.890643
1636273820040954154,-0.794155,0.0218379,-0.0111853,9.80904,0.0550666,-0.715866
1636273820041954412,-0.774447,0.0330232,-0.0117179,9.7851,0.035913,-0.823605
1636273820044954134,-0.73663,0.0276969,-0.0154463,9.84256,0.0383072,-0.907402
1636273820046984195,-0.69402,0.000532632,-0.00958738,9.84975,0.011971,-0.806846
1636273820048977735,-0.671117,-0.00213053,-0.0127832,9.85453,0.0694318,-0.782904
1636273820050952639,-0.627973,0.0165116,-0.0122505,9.88087,-0.258574,-1.08936
1636273820051970339,-0.616788,0.0532632,-0.0175769,9.7851,-0.52433,-1.58017
1636273820054958436,-0.610929,0.00905475,-0.0106526,9.72046,-0.742203,-2.88741
1636273820056970531,-0.616255,-0.0399474,-0.0117179,9.76595,-1.08457,-3.26809
1636273820058958592,-0.619984,-0.0234358,-0.0111853,9.79947,-1.13485,-3.20105
1636273820060957267,-0.588026,0.0234358,-0.0181095,9.84735,-0.864307,-2.7246
1636273820078953907,-0.253,0.00798948,-0.015979,10.1083,0.320823,-0.703895
1636273820079960177,-0.222108,-0.0181095,-0.0127832,9.64384,0.129287,-0.177171
1636273820082959573,-0.171508,0.0292948,-0.0154463,9.80186,-0.0861913,-0.155623
1636273820088966913,-0.127299,-0.00532632,-0.0138484,9.86172,-0.679953,-0.648829
1636273820089952905,-0.117712,-0.02024,-0.0181095,9.9527,-0.545878,-0.658405
1636273820092971340,-0.0612527,-0.0442085,-0.0207727,9.69412,-0.260968,0.0191536
1636273820094957312,-0.00905475,-0.0820254,-0.0106526,9.5792,-0.715866,-0.893037
1636273820096955894,0.0127832,-0.137419,0.00745685,9.98861,-0.550666,1.30245
1636273820098952424,0.0852212,0.015979,-0.015979,9.89045,-0.651223,1.42934
1636273820100971021,0.118244,0.0292948,-0.0149137,10.0389,-0.790087,1.07978
1636273820102950004,0.141148,-0.0511327,-0.0170442,9.95749,-1.12049,0.804452
1636273820103952186,0.133691,-0.0458064,-0.0186421,9.92875,-1.09415,0.730232
1636273820106951989,0.107592,-0.0117179,-0.0314253,9.87608,-0.950498,0.181959
1636273820108960042,0.0852212,-0.0543285,-0.0245011,9.75398,-0.744597,0.146046
1636273820111952439,0.0585895,-0.0372843,-0.02024,9.91439,-0.509965,-0.035913
1636273820113987098,0.0516653,-0.0229032,-0.0122505,9.90481,-0.395043,0.023942
1636273820115988481,0.0468716,-0.0186421,-0.0133158,9.91918,-0.301669,0.0646434
1636273820117979127,0.0330232,0.0276969,-0.0213053,9.9096,-0.299275,-0.471658
1636273820119983517,0.0245011,0.0149137,-0.0218379,9.81383,-0.306458,-0.588974
1636273820121955413,0.00958738,-0.062318,-0.0186421,10.0149,-0.0981623,-0.292093
1636273820122951833,0.00319579,-0.0415453,-0.0255663,9.91439,-0.0287304,-0.136469
1636273820125985342,-0.026099,-0.00479369,-0.0250337,9.85693,0.229843,-0.691924
1636273820141959013,0.046339,0.0447411,-0.0713727,10.3142,2.54264,3.08134
1636273820145966202,0.110255,-0.0671117,-0.0607201,9.84256,0.6608,-0.481235
1636273820146963799,0.105994,-0.20027,-0.0596548,10.4531,0.318429,0.0837971
1636273820149957511,0.132625,-0.125169,-0.0756338,10.003,0.28491,1.43892
1636273820151957697,0.113451,-0.123038,-0.0756338,9.19373,-1.69509,-3.06458
1636273820153954078,0.0878843,-0.34408,-0.0388822,9.77074,-1.47483,0.134075
1636273820155955414,0.134223,-0.278034,-0.0580569,10.1897,-1.01035,1.04148
1636273820156953854,0.155529,-0.194411,-0.0697748,10.0748,-0.885855,0.737414
1636273820159955777,0.173638,-0.0830906,-0.0937433,9.73961,-0.866701,0.533907
1636273820160953671,0.198139,-0.0772317,-0.0889496,9.71088,-0.835576,0.639252
1636273820164953793,0.218379,-0.0394148,-0.0996022,10.1778,-0.387861,0.581791
1636273820165957367,0.214118,-0.0287621,-0.107059,10.0149,-0.232238,0.701501
1636273820168983471,0.229564,-0.0830906,-0.112918,10.1394,-0.0167594,0.912191
1636273820170958541,0.235423,-0.16192,-0.114516,10.1754,0.282516,1.14922
1636273820172953965,0.227967,-0.187487,-0.11931,10.2999,0.395043,1.24498
1636273820174951828,0.213586,-0.229564,-0.132625,10.4076,0.488417,1.35272
1636273820176989718,0.214651,-0.246076,-0.147006,10.3238,0.474052,1.33596
1636273820178983007,0.185889,-0.235956,-0.15979,10.2568,0.361524,1.49638
1636273820179983255,0.164583,-0.213586,-0.173638,10.228,0.246603,1.52989
1636273820182983078,0.143811,-0.158724,-0.195476,10.2783,0.181959,1.66397
1636273820184979902,0.123571,0.0245011,-0.266316,10.5919,0.435745,1.62087
1636273820186953287,0.108124,0.143278,-0.304133,10.7619,0.708684,2.19788
1636273820189954777,0.0335558,0.499609,-0.417584,10.7667,0.407014,1.83875
1636273820191978324,0.00585895,0.624245,-0.460727,10.556,0.0215478,1.46765
1636273820193976402,-0.0729706,0.706803,-0.509196,11.0421,-0.588974,0.646434
1636273820211952317,-0.586961,-0.14168,-0.630104,10.6207,-1.901,-1.58496
1636273820213958766,-0.708933,-0.66579,-0.585895,10.3046,-1.39343,-0.802058
1636273820215967657,-0.74462,-0.847951,-0.590689,10.5512,-0.914585,-0.0311246
1636273820219959634,-0.842624,-1.02425,-0.619451,11.0756,-0.162806,0.531513
1636273820222957062,-0.938498,-0.945422,-0.629571,11.4132,0.196325,1.30723
1636273820224957831,-0.966195,-0.857538,-0.638093,11.2671,0.251391,1.20189
1636273820226951496,-1.0349,-0.74675,-0.658866,10.8984,0.0287304,0.78051
1636273820227953521,-1.061,-0.720119,-0.664192,11.0397,0.28491,1.56102
1636273820230953443,-1.08604,-0.637028,-0.678041,10.3262,0.023942,-0.0383072
1636273820232958468,-1.10734,-0.765392,-0.651942,10.5608,0.114922,-0.251391
1636273820235957969,-1.11746,-0.922519,-0.624778,10.2855,0.203507,0.229843
1636273820236955098,-1.10574,-0.928911,-0.611994,10.5728,0.493206,0.47884
1636273820239953529,-1.08284,-0.957673,-0.611462,10.2544,0.335188,-0.160412
1636273820241988440,-1.07805,-0.95501,-0.596015,10.1682,0.225055,-0.301669
1636273820243987494,-1.08391,-0.96513,-0.579504,10.094,0.241814,0.0407014
1636273820245988059,-1.07698,-0.898551,-0.558731,10.4746,0.234632,0.237026
1636273820246986483,-1.0642,-0.85807,-0.547546,10.3765,0.222661,0.440533
1636273820249989928,-1.03331,-0.760599,-0.510262,10.3693,0.181959,0.0694318
1636273820251990096,-1.00348,-0.640757,-0.454335,10.5919,0.371101,0.0454898
1636273820254980595,-0.983772,-0.665258,-0.369647,10.2927,0.011971,-0.943315
1636273820255963973,-0.971521,-0.70414,-0.326504,10.5249,0.150835,-0.59855
1636273820258954898,-0.930508,-0.704672,-0.245543,10.5273,0.213084,-0.560243
1636273820260954341,-0.872984,-0.725978,-0.158192,10.7667,0.344765,-0.586579
1636273820262986089,-0.842092,-0.723315,-0.127832,10.8936,0.356736,-0.512359
1636273820264976242,-0.757936,-0.675378,-0.112918,11.169,0.52433,0.122104
1636273820281962870,-0.356864,-0.747816,0.100667,10.1873,0.0550666,-1.68552
1636273820284971597,-0.256729,-0.934237,0.162985,10.0892,-0.0263362,-1.74058
1636273820288029239,-0.186954,-1.05994,0.215716,9.90481,-0.186748,-1.87945
1636273820289959693,-0.12943,-1.20481,0.260457,9.86172,-0.363919,-1.85072
1636273820293008482,-0.0617853,-1.30282,0.315851,9.79228,-0.316035,-1.66876
1636273820295952969,-0.00639159,-1.32838,0.36219,9.7444,-0.220267,-1.38385
1636273820297949893,0.0495348,-1.28524,0.4048,9.72046,-0.122104,-1.09415
1636273820298955756,0.082558,-1.24902,0.421845,9.72525,-0.0981623,-1.03908
1636273820301952321,0.156061,-1.13078,0.451139,9.7444,0.0287304,-0.790087
1636273820303951444,0.234891,-0.964597,0.46339,9.60554,0.160412,-0.658405
1636273820305981693,0.274306,-0.864995,0.470314,9.71328,0.198719,-0.557849
1636273820307980924,0.353668,-0.64555,0.475108,9.63427,0.253785,-0.445322
1636273820308955224,0.390952,-0.514523,0.470314,9.58638,0.227449,-0.471658
1636273820311955826,0.46126,-0.245543,0.474043,9.53611,0.234632,-0.392649
1636273820312955623,0.498011,-0.118777,0.465521,9.53132,0.174777,-0.416591
1636273820315986263,0.565655,0.118777,0.449009,9.5816,0.0454898,-0.430956
1636273820317964769,0.616255,0.310525,0.426638,9.64624,-0.0215478,-0.407014
1636273820319955812,0.641822,0.386691,0.403735,9.63427,-0.059855,-0.42138
1636273820321961676,0.694552,0.507599,0.360592,9.85693,-0.0790087,-0.387861
1636273820324960872,0.741957,0.588559,0.296144,9.95509,-0.117316,-0.373495
1636273820326974857,0.77711,0.646616,0.238619,10.0126,-0.179565,-0.289698
1636273820327978327,0.794155,0.669519,0.207194,10.0365,-0.198719,-0.25618
1636273820330975628,0.82558,0.723847,0.151268,10.1011,-0.237026,-0.110133
1636273820346951933,0.751011,0.980576,-0.136354,10.1706,-0.0909797,0.31364
1636273820348962910,0.723315,0.986968,-0.147006,10.0245,-0.105345,0.129287
1636273820350958069,0.661529,0.93477,-0.168312,10.058,-0.138864,0.0814029
1636273820353119190,0.630104,0.902279,-0.175236,10.0173,-0.241814,-0.0383072
1636273820354957787,0.550209,0.817058,-0.185356,9.92397,-0.21069,0.0191536
1636273820355960029,0.514523,0.776045,-0.189617,10.0197,-0.158017,0.0670376
1636273820358954458,0.425041,0.719054,-0.189617,9.96706,-0.0646434,0.260968
1636273820360955360,0.328634,0.683367,-0.202933,9.97185,-0.035913,0.229843
1636273820363956363,0.229032,0.633832,-0.201868,9.97664,-0.0383072,0.320823
1636273820365959888,0.128897,0.567786,-0.19015,9.87369,0,0.342371
1636273820367958405,0.0809601,0.535828,-0.197074,9.90481,0.0191536,0.423774
1636273820369982575,-0.0181095,0.458064,-0.179497,9.81623,0.0287304,0.378284
1636273820371967287,-0.0687096,0.417051,-0.179497,9.89045,0.0622492,0.514753
1636273820373996347,-0.153398,0.35207,-0.163518,9.81862,0.0909797,0.483629
1636273820374985094,-0.201335,0.322775,-0.150735,9.87129,0.150835,0.486023
1636273820378030766,-0.284958,0.264718,-0.130495,9.90481,0.220267,0.612916
1636273820380010817,-0.358994,0.226901,-0.113983,9.93833,0.270545,0.565032
1636273820381951871,-0.388822,0.201868,-0.103863,9.98143,0.263362,0.577003
1636273820383955061,-0.451139,0.153398,-0.0857538,9.95988,0.280122,0.581791
1636273820384954317,-0.477771,0.126766,-0.082558,10.0341,0.203507,0.543484
1636273820388953718,-0.529969,0.0532632,-0.0548611,9.89763,0.0885855,0.380678
1636273820389956685,-0.546481,0.026099,-0.0442085,9.9503,0.0215478,0.356736
1636273820392951557,-0.567786,-0.0127832,-0.0223706,9.85932,-0.0502782,0.251391
1636273820393954555,-0.578439,-0.0324906,-0.0170442,9.87608,-0.0766145,0.153229
1636273820410953150,-0.483097,-0.207194,0.0692422,9.64863,-0.0191536,-0.804452
1636273820412959436,-0.445813,-0.203998,0.0798948,9.59835,0.0622492,-0.940921
1636273820414964609,-0.425041,-0.208792,0.0836233,9.62708,-0.0143652,-0.981623
1636273820416965150,-0.380299,-0.216781,0.0953412,9.5792,-0.0143652,-1.12527
1636273820417959974,-0.357396,-0.214651,0.104929,9.60793,-0.0143652,-1.09894
1636273820421958099,-0.296676,-0.201335,0.105461,9.47625,-0.00718261,-1.13725
1636273820422957715,-0.269512,-0.193878,0.10919,9.50259,-0.0574608,-1.13964
1636273820425955016,-0.227434,-0.171508,0.113451,9.46189,-0.0909797,-1.16598
1636273820426956564,-0.204531,-0.155529,0.109722,9.51456,-0.0287304,-1.16837
1636273820430000367,-0.158724,-0.13156,0.115581,9.4954,-0.0383072,-1.11091
1636273820431981393,-0.123038,-0.102798,0.105994,9.42358,0.035913,-1.09894
1636273820433952784,-0.101733,-0.082558,0.103331,9.43555,0.0837971,-1.075
1636273820435952545,-0.0591222,-0.0356864,0.0996022,9.42837,0.035913,-1.00556
1636273820436983055,-0.0410127,-0.00692422,0.0900148,9.47386,0.0861913,-0.979228
1636273820439953050,-0.00479369,0.0655138,0.0830906,9.43794,0.0981623,-0.878672
1636273820441981168,0.0330232,0.139017,0.072438,9.54329,0.117316,-0.794875
1636273820443953180,0.0468716,0.176834,0.0617853,9.51695,0.0814029,-0.746991
1636273820446951786,0.0868191,0.280697,0.036219,9.56244,-0.0526724,-0.687136
1636273820448952679,0.104929,0.306796,0.0234358,9.48822,-0.114922,-0.653617
1636273820450950401,0.125169,0.347809,0.0015979,9.56723,-0.1652,-0.641646
1636273820452951662,0.13955,0.356331,-0.015979,9.64384,-0.189142,-0.653617
1636273820454982176,0.169377,0.374973,-0.0351537,9.72764,-0.158017,-0.629675
1636273820455990862,0.178964,0.379767,-0.0452737,9.77313,-0.114922,-0.646434
1636273820458986113,0.205596,0.399474,-0.0676443,9.91678,-0.11971,-0.56982
1636273820486952530,0.255131,0.309992,0.0751011,9.87369,0.222661,-0.430956
1636273820491957639,0.223706,0.215716,0.128897,9.89284,0.153229,-0.339977
1636273820493955484,0.206129,0.181628,0.154996,9.67257,0.148441,-0.237026
1636273820496984903,0.192813,0.154996,0.18003,9.72285,0.126893,-0.0574608
1636273820498955356,0.16991,0.192813,0.186421,9.70849,0.172383,-0.0311246
1636273820502010656,0.152865,0.152333,0.202933,9.45949,-0.023942,-0.316035
1636273820503955273,0.129962,0.109722,0.207194,9.52174,0.126893,-0.0526724
1636273820506954235,0.114516,0.0756338,0.211455,9.39245,0.023942,-0.0766145
1636273820507956214,0.101733,0.0580569,0.215716,9.4978,0.107739,0.0143652
1636273820510954198,0.0900148,0.052198,0.206661,9.45949,0.105345,0.177171
1636273820512952136,0.0676443,0.0607201,0.193878,9.45231,0.107739,0.28491
1636273820515031984,0.0532632,0.0639159,0.184823,9.47386,0.0694318,0.3304
1636273820516989393,0.0372843,0.0777643,0.17204,9.47864,0.0454898,0.301669
1636273820517998406,0.0197074,0.0809601,0.167247,9.45949,0.102951,0.31364
1636273820520979939,-0.0223706,0.0756338,0.135289,9.62708,0.148441,0.426168
1636273820522953348,-0.0420779,0.0410127,0.111853,9.56484,0.253785,0.457293
1636273820525951809,-0.0442085,0.00372843,0.0703075,9.54329,0.268151,0.512359
1636273820552954733,-0.143278,0.0607201,-0.157659,10.082,-0.0167594,0.318429
1636273820554956333,-0.157659,0.052198,-0.156594,10.24,-0.0287304,0.270545
1636273820555956033,-0.16192,0.0426106,-0.147539,10.2065,-0.071826,0.289698
1636273820558956166,-0.177899,0.0356864,-0.139017,10.1682,-0.071826,0.263362
1636273820560958890,-0.185356,0.056459,-0.129962,10.343,0.0526724,0.411803
1636273820562991686,-0.187487,0.0687096,-0.128897,10.2041,-0.11971,0.0766145
1636273820564954472,-0.193346,0.0410127,-0.107592,10.2735,-0.100556,-0.071826
1636273820566985654,-0.19228,0.0287621,-0.101733,10.2232,-0.0622492,-0.11971
1636273820568956469,-0.188019,0.0197074,-0.0900148,10.2424,-0.00718261,-0.169988
1636273820571959987,-0.184291,0.0314253,-0.066579,10.3166,-0.035913,-0.246603
1636273820573957544,-0.173105,0.0442085,-0.0553938,10.2975,-0.105345,-0.275333
1636273820574963767,-0.165116,0.0527306,-0.0452737,10.3142,-0.162806,-0.31364
1636273820577957417,-0.153398,0.0655138,-0.0186421,10.3837,-0.172383,-0.383072
1636273820579956332,-0.13955,0.0740359,-0.0015979,10.3645,-0.265756,-0.399832
1636273820581990446,-0.132625,0.0735032,0.00692422,10.4459,-0.253785,-0.361524
1636273820583990127,-0.115049,0.0676443,0.0282295,10.4986,-0.234632,-0.399832
1636273820585988701,-0.1012,0.0628506,0.0394148,10.5345,-0.301669,-0.445322
1636273820589000581,-0.0745685,0.0474043,0.0628506,10.4866,-0.292093,-0.42138
1636273820590958654,-0.0703075,0.0442085,0.0676443,10.5273,-0.339977,-0.490811
1636273820592955932,-0.0537959,0.0420779,0.0958738,10.4507,-0.294487,-0.543484
1636273820593955861,-0.0527306,0.036219,0.103863,10.5273,-0.251391,-0.512359
1636273820610958485,0.0591222,-0.00798948,0.195476,9.95749,-0.533907,-0.754174
1636273820614960347,0.0862864,-0.0527306,0.21252,9.96467,-0.464475,-0.600945
1636273820617290610,0.105994,-0.0543285,0.219444,9.91439,-0.3304,-0.509965
1636273820617957388,0.107592,-0.0532632,0.225836,9.82341,-0.272939,-0.507571
1636273820620956311,0.114516,-0.0569916,0.236489,9.85453,-0.244209,-0.459687
1636273820621957469,0.119842,-0.0601874,0.244478,9.75398,-0.220267,-0.454898
1636273820625956610,0.126234,-0.0809601,0.262588,9.63187,-0.148441,-0.344765
1636273820626956102,0.127299,-0.0889496,0.265251,9.58399,-0.136469,-0.323217
1636273820629962114,0.13156,-0.0873517,0.28123,9.55765,-0.0957681,-0.263362
1636273820631957727,0.133691,-0.0900148,0.282828,9.54089,-0.172383,-0.172383
1636273820633988906,0.131028,-0.0862864,0.282828,9.48343,-0.179565,-0.0430956
1636273820635984779,0.130495,-0.0820254,0.295611,9.49062,-0.196325,0.00957681
1636273820636985545,0.135821,-0.0809601,0.292415,9.48104,-0.150835,0.0622492
1636273820639958897,0.132625,-0.0687096,0.287089,9.55765,-0.153229,0.201113
1636273820640956981,0.136886,-0.062318,0.282295,9.50737,-0.122104,0.229843
1636273820643957162,0.139017,-0.0511327,0.275903,9.50737,-0.184354,0.301669
1636273820645957497,0.137419,-0.0458064,0.261522,9.54568,-0.150835,0.356736
1636273820649006409,0.138484,-0.0314253,0.248207,9.60554,-0.213084,0.373495
1636273820650981609,0.136354,-0.0165116,0.235423,9.60793,-0.316035,0.4956
1636273820652991443,0.136354,-0.00426106,0.230097,9.5792,-0.28491,0.486023
1636273820655001525,0.133691,0.0276969,0.21252,9.63187,-0.253785,0.483629
1636273820655959015,0.127299,0.0410127,0.20027,9.6199,-0.21069,0.442927
1636273820658952583,0.122505,0.0772317,0.184291,9.71567,-0.225055,0.469264
1636273820659954911,0.116646,0.0937433,0.178432,9.77553,-0.184354,0.471658
1636273820678954798,0.0442085,0.224771,0.0655138,9.78271,-0.222661,0.177171
1636273820680966803,0.0420779,0.233293,0.0569916,9.88566,-0.23942,0.186748
1636273820682959409,0.0372843,0.24075,0.0553938,9.79228,-0.277727,0.126893
1636273820683959082,0.03036,0.243413,0.0468716,9.86651,-0.263362,0.105345
1636273820686961584,0.0191748,0.258859,0.0351537,9.80665,-0.292093,0.0407014
1636273820688953898,0.00905475,0.265251,0.0255663,9.84496,-0.258574,-0.0143652
1636273820691969802,0.00266316,0.264718,0.0170442,9.84975,-0.383072,-0.112527
1636273820693955781,-0.00426106,0.241815,0.00372843,9.92636,-0.31364,-0.186748
1636273820695959733,-0.00372843,0.226369,0.00106526,9.84975,-0.320823,-0.227449
1636273820697959700,-0.00852212,0.184823,-0.00266316,9.89284,-0.316035,-0.258574
1636273820698990566,-0.00639159,0.16192,-0.00852212,9.91439,-0.332794,-0.205901
1636273820701957464,-0.00692422,0.140615,-0.0165116,9.9096,-0.351948,-0.169988
1636273820702955090,-0.00639159,0.132093,-0.0276969,9.96467,-0.3304,-0.248997
1636273820705990317,-0.00958738,0.122505,-0.03036,9.98382,-0.3304,-0.213084
1636273820708004072,-0.0186421,0.118244,-0.04048,10.003,-0.385466,-0.318429
1636273820710992572,-0.0213053,0.107059,-0.0447411,10.0078,-0.354342,-0.325611
1636273820713005733,-0.0234358,0.0980043,-0.0506001,9.9934,-0.323217,-0.335188
1636273820715006088,-0.0324906,0.092678,-0.0527306,9.92875,-0.347159,-0.442927
1636273820716988644,-0.0351537,0.0756338,-0.0569916,9.94073,-0.409408,-0.553061
1636273820717985892,-0.04048,0.062318,-0.0559264,9.88087,-0.385466,-0.500388
1636273820720998589,-0.0495348,0.0426106,-0.0548611,9.9503,-0.323217,-0.519542
1636273820721963806,-0.0511327,0.0207727,-0.0506001,9.93115,-0.335188,-0.526724
1636273820724981334,-0.0601874,-0.00798948,-0.056459,10.0269,-0.35913,-0.486023
1636273820726960029,-0.0671117,-0.0271642,-0.0468716,10.0341,-0.301669,-0.481235
1636273820730021594,-0.0830906,-0.0335558,-0.0511327,9.99819,-0.316035,-0.390255
1636273820731992721,-0.100135,-0.036219,-0.0447411,10.0149,-0.234632,-0.390255
1636273820761958073,-0.159257,-0.324373,-0.0282295,9.91678,-0.397437,0.160412
1636273820765341701,-0.151268,-0.289752,-0.0133158,9.89524,-0.40462,0.11971
1636273820766958585,-0.14967,-0.275903,-0.00798948,9.93594,-0.361524,0.148441
1636273820768956720,-0.136886,-0.256196,0.00106526,9.84735,-0.294487,0.0287304
1636273820771961642,-0.124103,-0.242348,0.00479369,9.71806,-0.323217,0.059855
1636273820773961818,-0.106526,-0.22051,0.0138484,9.69173,-0.289698,0.0646434
1636273820775006068,-0.0942759,-0.201335,0.0207727,9.69412,-0.380678,-0.011971
1636273820777960929,-0.0772317,-0.153398,0.0207727,9.67976,-0.373495,-0.0215478
1636273820778962768,-0.0681769,-0.130495,0.0239685,9.70849,-0.390255,-0.047884
1636273820781956222,-0.0458064,-0.092678,0.0287621,9.73482,-0.356736,-0.0430956
1636273820783957446,-0.0197074,-0.066579,0.0213053,9.70131,-0.354342,-0.0957681
1636273820785990346,-0.00266316,-0.0596548,0.015979,9.71088,-0.411803,-0.105345
1636273820787962713,0.0197074,-0.046339,0.0170442,9.68215,-0.45011,-0.0909797
1636273820789001220,0.0351537,-0.0378169,0.0117179,9.70131,-0.486023,-0.0191536
1636273820792959842,0.0708401,-0.00745685,0.00692422,9.74919,-0.493206,-0.0215478
1636273820793956430,0.0873517,0.00798948,0.00905475,9.72285,-0.442927,0.00957681
1636273820797032004,0.108657,0.0346211,0.00426106,9.68455,-0.42138,0.11971
1636273820812955911,0.203466,0.234891,-0.0356864,9.70609,-0.21069,0.301669
1636273820814974464,0.2024,0.24288,-0.0367516,9.63666,-0.172383,0.23942
1636273820816961157,0.195476,0.256729,-0.0442085,9.70609,-0.146046,0.169988
1636273820818962313,0.197074,0.256729,-0.0490022,9.74201,-0.153229,0.174777
1636273820821963083,0.177367,0.255663,-0.0543285,9.76116,-0.138864,0.0550666
1636273820823962027,0.175769,0.256729,-0.0543285,9.7444,-0.107739,-0.0143652
1636273820825959805,0.15979,0.243946,-0.0644485,9.79707,-0.208296,-0.0550666
1636273820826959472,0.150735,0.234891,-0.0708401,9.8258,-0.172383,-0.107739
1636273820829959906,0.132093,0.209857,-0.0873517,9.78271,-0.1652,-0.129287
1636273820831965639,0.123038,0.177367,-0.0990696,9.78031,-0.179565,-0.11971
1636273820833963593,0.115581,0.158192,-0.106526,9.74201,-0.201113,-0.169988
1636273820835988154,0.103863,0.13156,-0.124103,9.78031,-0.19393,-0.169988
1636273820837967327,0.100667,0.115581,-0.123038,9.79947,-0.126893,-0.213084
1636273820839960775,0.0809601,0.0905475,-0.143811,9.78989,-0.138864,-0.23942
1636273820840959338,0.0761664,0.0868191,-0.14168,9.77553,-0.169988,-0.251391
1636273820843961440,0.0697748,0.076699,-0.156594,9.84735,-0.0694318,-0.292093
1636273820846023372,0.0617853,0.0628506,-0.163518,9.81383,-0.136469,-0.272939
1636273820848982034,0.0537959,0.0681769,-0.168312,9.86411,-0.287304,-0.205901
1636273820850961663,0.0527306,0.0868191,-0.175769,9.79947,-0.335188,-0.110133
1636273820852962810,0.0495348,0.0974717,-0.170975,9.8258,-0.344765,-0.129287
1636273820854960872,0.0468716,0.123038,-0.177367,9.91678,-0.42138,-0.0909797
1636273820856967523,0.0490022,0.127299,-0.181095,9.94551,-0.371101,-0.129287
1636273820858986081,0.0537959,0.139017,-0.185356,9.96227,-0.301669,-0.146046
1636273820859984143,0.0553938,0.136354,-0.194411,10.0269,-0.277727,-0.248997
1636273820862990428,0.0639159,0.13156,-0.2024,10.0437,-0.292093,-0.203507
1636273820882985960,0.123571,0.0980043,-0.216781,10.3453,-0.11971,0.0502782
1636273820884230642,0.12144,0.082558,-0.211988,10.4004,-0.213084,0.0502782
1636273820886958464,0.131028,0.0537959,-0.209857,10.3693,-0.277727,0.129287
1636273820888959359,0.126766,0.0292948,-0.205596,10.3477,-0.308852,0.1652
1636273820890959472,0.123038,0.0282295,-0.199204,10.3669,-0.287304,0.186748
1636273820892968487,0.123038,0.0223706,-0.196009,10.4052,-0.270545,0.237026
1636273820894963274,0.118244,0.0207727,-0.196541,10.3741,-0.191536,0.253785
1636273820896957897,0.109722,0.015979,-0.180562,10.4459,-0.184354,0.217872
1636273820897963348,0.103331,0.00852212,-0.184291,10.4172,-0.071826,0.217872
1636273820901958870,0.0932106,-0.0149137,-0.167779,10.3693,0.0215478,0.220267
1636273820902954082,0.0836233,-0.0218379,-0.162985,10.3262,0.0191536,0.222661
1636273820905958921,0.0708401,-0.0346211,-0.153398,10.2999,-0.0742203,0.270545
1636273820907960129,0.0575243,-0.0330232,-0.145409,10.2711,-0.126893,0.397437
1636273820909964022,0.0506001,-0.026099,-0.142745,10.3286,-0.23942,0.385466
1636273820911960155,0.0340885,-0.0234358,-0.133691,10.2256,-0.28491,0.452504
1636273820912958864,0.0276969,-0.0218379,-0.129962,10.1442,-0.349553,0.411803
1636273820915960047,0.00745685,-0.0255663,-0.125701,10.1634,-0.328006,0.397437
1636273820918955732,-0.00532632,-0.0234358,-0.112385,10.0724,-0.208296,0.270545
1636273820920957796,-0.0143811,-0.0601874,-0.102265,10.0604,-0.047884,0.205901
1636273820921969220,-0.0229032,-0.0782969,-0.1012,9.96227,-0.0047884,0.153229
1636273820924955392,-0.0356864,-0.127299,-0.0878843,9.84017,-0.0215478,-0.0215478
1636273820926956391,-0.0500674,-0.156061,-0.0761664,9.92875,0.071826,0.0670376
1636273820953992245,-0.132093,-0.251402,-0.0569916,9.64384,-0.0215478,-0.469264
1636273820954963752,-0.136886,-0.247674,-0.0585895,9.67497,-0.0191536,-0.447716
1636273820957961768,-0.137952,-0.239684,-0.0633832,9.69173,-0.0550666,-0.493206
1636273820959955647,-0.135289,-0.217314,-0.0729706,9.69173,-0.0215478,-0.483629
1636273820962956836,-0.127832,-0.205596,-0.0793622,9.69412,0.0885855,-0.4956
1636273820964957882,-0.126766,-0.206129,-0.0889496,9.7875,0.0047884,-0.457293
1636273820966956639,-0.124636,-0.20027,-0.0905475,9.75877,-0.0191536,-0.454898
1636273820968964334,-0.12144,-0.181628,-0.1012,9.72525,0.0670376,-0.392649
1636273820969963605,-0.118244,-0.164583,-0.100667,9.7851,0.0430956,-0.332794
1636273820972962640,-0.119842,-0.144343,-0.111853,9.81862,0.107739,-0.28491
1636273820973957845,-0.117712,-0.130495,-0.110788,9.77074,0.0790087,-0.332794
1636273820976961192,-0.109722,-0.105994,-0.12144,9.81623,0.0766145,-0.253785
1636273820978961870,-0.105994,-0.0740359,-0.131028,9.81862,0.0430956,-0.196325
1636273820980956930,-0.104929,-0.0585895,-0.131028,9.85932,-0.0311246,-0.155623
1636273820982989152,-0.0996022,-0.0292948,-0.135289,9.87608,-0.011971,-0.134075
1636273820985993462,-0.0932106,-0.0106526,-0.145409,9.92157,-0.0383072,-0.131681
1636273820987993761,-0.0878843,0.00798948,-0.153931,9.92636,-0.0814029,-0.102951
1636273820988967739,-0.0900148,0.0106526,-0.155529,9.96227,-0.0550666,-0.0454898
1636273820991956181,-0.0873517,0.0271642,-0.165649,9.97185,-0.184354,-0.023942
1636273820992980294,-0.0894822,0.0351537,-0.168312,10.0149,-0.162806,-0.0191536
1636273820995988510,-0.0846885,0.0388822,-0.178432,9.98861,-0.177171,-0.00718261
1636273821011957612,-0.0777643,0.130495,-0.187487,10.2017,-0.325611,0.289698
1636273821015107375,-0.076699,0.132625,-0.181628,10.2496,-0.31364,0.275333
1636273821016972629,-0.0745685,0.138484,-0.178432,10.331,-0.246603,0.337582
1636273821018969099,-0.0719054,0.137419,-0.169377,10.3477,-0.19393,0.332794
1636273821020956883,-0.0697748,0.134756,-0.16192,10.2807,-0.177171,0.325611
1636273821021962921,-0.0708401,0.132625,-0.153931,10.2783,-0.0981623,0.366313
1636273821024957242,-0.0687096,0.143278,-0.136354,10.3022,-0.0981623,0.332794
1636273821026961008,-0.0655138,0.159257,-0.118777,10.2568,-0.0502782,0.198719
1636273821028961293,-0.066579,0.167779,-0.11132,10.1347,-0.0837971,0.155623
1636273821030984204,-0.0660464,0.176301,-0.0974717,10.1394,-0.126893,0.102951
1636273821032963776,-0.0655138,0.18003,-0.0873517,10.1442,-0.0957681,0.0742203
1636273821035961699,-0.0628506,0.198139,-0.0681769,10.082,-0.131681,-0.011971
1636273821037994492,-0.0591222,0.201335,-0.0644485,10.0604,-0.148441,0
1636273821039959181,-0.056459,0.205596,-0.052198,9.96706,-0.208296,-0.0191536
1636273821040958597,-0.0527306,0.207727,-0.0468716,9.97903,-0.263362,-0.0622492
1636273821043990869,-0.056459,0.216781,-0.0452737,9.98622,-0.282516,-0.131681
1636273821045993400,-0.052198,0.219977,-0.0340885,10.0102,-0.23942,-0.19393
1636273821047992236,-0.0495348,0.214118,-0.0410127,9.98143,-0.225055,-0.196325
1636273821049963493,-0.0468716,0.199737,-0.0351537,9.98622,-0.198719,-0.23942
1636273821051960729,-0.0458064,0.186421,-0.036219,10.0221,-0.203507,-0.232238
1636273821053957345,-0.0426106,0.169377,-0.0415453,9.9503,-0.126893,-0.270545
1636273821054961883,-0.0399474,0.156594,-0.0420779,9.91439,-0.148441,-0.258574
1636273821057962070,-0.0431432,0.144876,-0.0367516,9.96227,-0.181959,-0.227449
1636273821059986432,-0.0431432,0.125169,-0.0436758,9.95988,-0.169988,-0.169988
1636273821061982765,-0.0452737,0.119842,-0.0484695,10.0054,-0.155623,-0.138864
1636273821078961452,-0.0857538,-0.0372843,-0.0569916,10.0102,-0.124498,-0.263362
1636273821080968095,-0.0873517,-0.052198,-0.0548611,10.0389,-0.105345,-0.260968
1636273821082886925,-0.0932106,-0.0681769,-0.0575243,10.0916,-0.102951,-0.189142
1636273821084071688,-0.0964064,-0.0846885,-0.0569916,10.1394,-0.160412,-0.237026
1636273821086968670,-0.103331,-0.118777,-0.0495348,10.1466,-0.169988,-0.208296
1636273821087966762,-0.105461,-0.127299,-0.0490022,10.1538,-0.227449,-0.229843
1636273821090985500,-0.116646,-0.131028,-0.046339,10.161,-0.215478,-0.205901
1636273821092961206,-0.119842,-0.128897,-0.0426106,10.2113,-0.258574,-0.122104
1636273821094964999,-0.119842,-0.129962,-0.0388822,10.1347,-0.328006,-0.122104
1636273821097961472,-0.130495,-0.111853,-0.04048,10.2328,-0.268151,-0.169988
1636273821099980121,-0.134223,-0.11132,-0.0367516,10.2544,-0.280122,-0.112527
1636273821101964906,-0.140082,-0.10919,-0.0335558,10.2041,-0.153229,-0.158017
1636273821102957225,-0.135821,-0.107059,-0.0271642,10.2113,-0.19393,-0.146046
1636273821105959439,-0.13955,-0.111853,-0.0298274,10.1849,-0.227449,-0.131681
1636273821106956251,-0.143811,-0.109722,-0.02024,10.2328,-0.215478,-0.158017
1636273821109957106,-0.13955,-0.0916127,-0.02024,10.2089,-0.251391,-0.0885855
1636273821111957035,-0.142745,-0.0660464,-0.0133158,10.2161,-0.323217,-0.0909797
1636273821113984764,-0.14168,-0.0527306,-0.0138484,10.1897,-0.354342,-0.0383072
1636273821115957206,-0.134756,-0.0181095,-0.00372843,10.2208,-0.361524,-0.0287304
1636273821117049086,-0.132093,0.000532632,-0.00213053,10.2113,-0.380678,-0.0430956
1636273821120961614,-0.121973,0.0292948,0.00798948,10.173,-0.366313,-0.0143652
1636273821121963253,-0.112918,0.0394148,0.0111853,10.1466,-0.289698,-0.035913
1636273821124991124,-0.0996022,0.046339,0.0127832,10.1754,-0.265756,-0.0191536
1636273821125962930,-0.0900148,0.0452737,0.0245011,10.1801,-0.265756,-0.0311246
1636273821140958915,-0.036219,0.156061,0.0996022,9.88087,-0.275333,-0.0047884
1636273821147964532,-0.0223706,0.214118,0.110788,9.86172,-0.1652,-0.035913
1636273821150023766,-0.015979,0.221575,0.104396,9.85932,-0.205901,-0.0957681
1636273821151974048,-0.0117179,0.22051,0.107059,9.88326,-0.19393,-0.131681
1636273821153961296,-0.00745685,0.224238,0.101733,9.87848,-0.146046,-0.0909797
1636273821154960523,0.00106526,0.223173,0.104929,9.88326,-0.172383,-0.0909797
1636273821157957904,0.00585895,0.219444,0.0916127,9.85932,-0.220267,-0.0766145
1636273821159959393,0.0127832,0.227434,0.0878843,9.93833,-0.208296,-0.0742203
1636273821161965357,0.015979,0.231695,0.0782969,9.88566,-0.229843,-0.047884
1636273821163956345,0.0191748,0.234891,0.0703075,9.98861,-0.325611,-0.0287304
1636273821165985912,0.0191748,0.235423,0.0719054,10.0102,-0.31364,-0.0430956
1636273821167992019,0.0239685,0.241282,0.0559264,10.0197,-0.308852,-0.0790087
1636273821170965315,0.026099,0.239684,0.0436758,10.0772,-0.361524,-0.0766145
1636273821172959373,0.0314253,0.237021,0.0383495,10.0509,-0.392649,-0.0143652
1636273821174007108,0.03036,0.239152,0.0356864,10.1083,-0.385466,0.0335188
1636273821176963591,0.0255663,0.248739,0.0292948,10.1323,-0.342371,-0.0023942
1636273821178960363,0.0266316,0.255663,0.03036,10.1514,-0.344765,-0.0047884
1636273821180986386,0.0218379,0.261522,0.0213053,10.161,-0.332794,0.0191536
1636273821182998791,0.0223706,0.270045,0.0282295,10.1155,-0.272939,0.00718261
1636273821183958315,0.0207727,0.275903,0.0223706,10.2328,-0.253785,-0.023942
1636273821186960641,0.0207727,0.272708,0.0197074,10.2208,-0.237026,0.0191536
1636273821187958156,0.0239685,0.270045,0.0229032,10.2568,-0.294487,0.0263362
1636273821190956790,0.0282295,0.26099,0.0388822,10.2615,-0.344765,0.0047884
1636273821192957827,0.0287621,0.244478,0.0383495,10.1514,-0.395043,0.0837971
1636273821194956577,0.0330232,0.231695,0.0458064,10.2639,-0.361524,0.0814029
1636273821197959754,0.0346211,0.206661,0.0527306,10.1801,-0.28491,0.0407014
1636273821213962676,0.0223706,0.158192,0.127832,10.0796,-0.280122,0.299275
1636273821215970363,0.0138484,0.152865,0.135821,10.0796,-0.316035,0.337582
1636273821216967775,0.00798948,0.146474,0.142745,10.0054,-0.275333,0.325611
1636273821219961003,0.000532632,0.137419,0.147539,9.991,-0.296881,0.272939
1636273821221972590,-0.0122505,0.136354,0.14967,9.94073,-0.258574,0.409408
1636273821224986323,-0.0229032,0.147006,0.160322,9.90721,-0.263362,0.351948
1636273821225967816,-0.0319579,0.147006,0.15979,9.93354,-0.265756,0.363919
1636273821228956755,-0.0415453,0.155529,0.152865,9.92636,-0.260968,0.337582
1636273821231004324,-0.0553938,0.161388,0.153931,9.89284,-0.328006,0.354342
1636273821232957531,-0.0575243,0.168312,0.154463,9.89045,-0.301669,0.344765
1636273821234984505,-0.0703075,0.172573,0.142213,9.89284,-0.299275,0.361524
1636273821235983238,-0.0756338,0.168844,0.132093,9.84017,-0.31364,0.378284
1636273821238967709,-0.0857538,0.167779,0.128897,9.88566,-0.347159,0.368707
1636273821240991241,-0.0894822,0.169377,0.113983,9.86651,-0.371101,0.380678
1636273821242994683,-0.0905475,0.166714,0.107059,9.86411,-0.318429,0.342371
1636273821244975999,-0.0980043,0.156061,0.0969391,9.90242,-0.260968,0.289698
1636273821247992695,-0.102798,0.151268,0.092678,9.76834,-0.162806,0.229843
1636273821249992946,-0.104929,0.142745,0.0820254,9.83778,-0.172383,0.203507
1636273821252037308,-0.106526,0.143278,0.0782969,9.80665,-0.21069,0.201113
1636273821253963949,-0.105994,0.152865,0.076699,9.75158,-0.270545,0.201113
1636273821255003628,-0.107592,0.163518,0.0761664,9.75637,-0.23942,0.21069
1636273821257982616,-0.107592,0.178964,0.0697748,9.66779,-0.102951,0.174777
1636273821259984038,-0.103863,0.19228,0.0639159,9.71806,-0.1652,0.0861913
1636273821261960482,-0.101733,0.192813,0.0585895,9.73722,-0.114922,0.100556
1636273821264013761,-0.0916127,0.19015,0.0607201,9.78271,-0.071826,0.124498
1636273821280958129,-0.0543285,0.0857538,0.0596548,9.84256,-0.126893,0.260968
1636273821282968023,-0.052198,0.0660464,0.0633832,9.79947,-0.0981623,0.296881
1636273821285106676,-0.0511327,0.0596548,0.0628506,9.85453,-0.0957681,0.392649
1636273821286967429,-0.0537959,0.0527306,0.0660464,9.80904,-0.146046,0.440533
1636273821287993480,-0.0569916,0.0516653,0.0719054,9.88566,-0.189142,0.418985
1636273821290963612,-0.0596548,0.0607201,0.0671117,9.86411,-0.248997,0.509965
1636273821292958561,-0.0660464,0.0751011,0.076699,9.85693,-0.356736,0.533907
1636273821294959167,-0.0703075,0.0761664,0.072438,9.87129,-0.299275,0.493206
1636273821296957252,-0.0804275,0.0793622,0.0761664,9.88805,-0.335188,0.531513
1636273821297993785,-0.0804275,0.0814927,0.0782969,9.89763,-0.320823,0.464475
1636273821300956644,-0.0884169,0.0820254,0.0740359,9.91918,-0.311246,0.474052
1636273821303992353,-0.0884169,0.0820254,0.0751011,9.89045,-0.31364,0.596156
1636273821305962467,-0.0884169,0.082558,0.0708401,9.92875,-0.31364,0.591368
1636273821306960113,-0.0894822,0.0884169,0.066579,9.87608,-0.347159,0.648829
1636273821309962204,-0.0953412,0.0894822,0.0660464,9.86651,-0.299275,0.596156
1636273821311960172,-0.0937433,0.0996022,0.062318,9.80426,-0.351948,0.632069
1636273821313959954,-0.0948085,0.108657,0.0671117,9.85214,-0.316035,0.6608
1636273821315962120,-0.0862864,0.120375,0.0601874,9.75398,-0.270545,0.533907
1636273821316963808,-0.0916127,0.125169,0.0527306,9.75158,-0.304064,0.574608
1636273821319969036,-0.0905475,0.137952,0.0591222,9.85932,-0.21069,0.469264
1636273821320995677,-0.0900148,0.142213,0.0585895,9.83059,-0.225055,0.514753
1636273821323963032,-0.0814927,0.156594,0.0532632,9.78271,-0.205901,0.447716
1636273821325960776,-0.0798948,0.165116,0.0495348,9.71328,-0.158017,0.387861
1636273821328961936,-0.0713727,0.157659,0.0447411,9.81862,-0.160412,0.337582
1636273821343962517,-0.026099,0.196009,0.0442085,9.89045,-0.311246,0.122104
1636273821346966735,-0.0234358,0.191215,0.04048,9.98143,-0.241814,0.179565
1636273821348959267,-0.0207727,0.189084,0.0351537,9.89045,-0.277727,0.248997
1636273821349962293,-0.0191748,0.185356,0.0378169,9.97185,-0.316035,0.191536
1636273821352966474,-0.0175769,0.20027,0.0319579,9.96706,-0.328006,0.292093
1636273821354978592,-0.0127832,0.210922,0.0356864,10.0341,-0.380678,0.318429
1636273821357018493,-0.0127832,0.218912,0.0324906,9.98143,-0.344765,0.31364
1636273821358962906,-0.0154463,0.233293,0.0298274,10.0533,-0.383072,0.318429
1636273821361991671,-0.0117179,0.252468,0.0276969,10.0221,-0.464475,0.411803
1636273821363984798,-0.0111853,0.269512,0.0324906,10.1035,-0.35913,0.430956
1636273821365991419,-0.0133158,0.275903,0.0276969,10.161,-0.347159,0.390255
1636273821367960717,-0.00798948,0.29135,0.0308927,10.161,-0.277727,0.411803
1636273821368958674,-0.00532632,0.289219,0.0356864,10.2424,-0.296881,0.488417
1636273821372011404,-0.00372843,0.294546,0.0356864,10.2376,-0.287304,0.466869
1636273821373991810,-0.000532632,0.29348,0.0330232,10.2615,-0.296881,0.502782
1636273821375992106,0.00213053,0.298274,0.0335558,10.2496,-0.332794,0.545878
1636273821377991421,0.00798948,0.299872,0.0442085,10.3214,-0.263362,0.531513
1636273821379959388,0.00692422,0.302002,0.0468716,10.343,-0.296881,0.514753
1636273821381982317,0.00266316,0.300405,0.0633832,10.3262,-0.318429,0.565032
1636273821384959196,0.00745685,0.299339,0.0713727,10.3022,-0.371101,0.622492
1636273821386983293,0.0106526,0.302535,0.0745685,10.2831,-0.380678,0.586579
1636273821387961630,0.00905475,0.299339,0.0846885,10.2304,-0.407014,0.605733
1636273821390990789,0.0111853,0.298807,0.0964064,10.2592,-0.414197,0.679953
1636273821392989830,0.01012,0.299872,0.109722,10.2639,-0.354342,0.593762
1636273821394965315,0.00958738,0.291882,0.11132,10.2448,-0.342371,0.579397
1636273821396987243,0.00639159,0.275371,0.132625,10.2568,-0.304064,0.603339
1636273821411960904,-0.0266316,0.174171,0.187487,10.1538,-0.363919,0.723049
1636273821414969872,-0.0335558,0.166714,0.192813,10.1801,-0.260968,0.787692
1636273821415966214,-0.0372843,0.159257,0.198672,10.161,-0.31364,0.751779
1636273821418995856,-0.0388822,0.144343,0.202933,10.1466,-0.237026,0.749385
1636273821420963491,-0.0511327,0.132093,0.21039,10.0173,-0.1652,0.756568
1636273821422965760,-0.0591222,0.121973,0.210922,10.0269,-0.169988,0.790087
1636273821424959170,-0.0580569,0.106526,0.222108,9.98622,-0.1652,0.708684
1636273821425959342,-0.062318,0.0942759,0.218912,9.85453,-0.217872,0.725443
1636273821429961637,-0.0697748,0.0697748,0.233826,9.85693,-0.150835,0.730232
1636273821430957122,-0.0708401,0.066579,0.238087,9.81144,-0.179565,0.720655
1636273821433990299,-0.0761664,0.0537959,0.245011,9.74679,-0.246603,0.718261
1636273821434991240,-0.0777643,0.052198,0.24288,9.75158,-0.260968,0.754174
1636273821437959082,-0.0846885,0.0442085,0.249272,9.64384,-0.205901,0.715866
1636273821439956488,-0.0884169,0.0372843,0.239152,9.55765,-0.258574,0.758962
1636273821441958347,-0.0878843,0.0356864,0.241815,9.52892,-0.263362,0.773327
1636273821443956301,-0.092678,0.0298274,0.237021,9.51695,-0.304064,0.756568
1636273821445016932,-0.0942759,0.0314253,0.230097,9.51695,-0.280122,0.80924
1636273821447958112,-0.1012,0.0255663,0.224238,9.47625,-0.282516,0.756568
1636273821449957939,-0.102265,0.0314253,0.214651,9.46907,-0.280122,0.782904
1636273821451958869,-0.104929,0.0282295,0.208259,9.46428,-0.316035,0.828394
1636273821453990816,-0.112918,0.0308927,0.197074,9.40921,-0.287304,0.866701
1636273821456962100,-0.112918,0.0229032,0.176301,9.32302,-0.265756,0.873884
1636273821458959680,-0.125169,0.0266316,0.163518,9.34936,-0.19393,0.85473
1636273821460960948,-0.127299,0.0314253,0.14967,9.3302,-0.217872,0.864307
1636273821462956504,-0.136354,0.0383495,0.137952,9.34696,-0.237026,0.876278
1636273821477961105,-0.172573,0.157127,0.015979,9.47625,-0.356736,0.811634
1636273821480969573,-0.170442,0.153398,-0,9.55765,-0.296881,0.837971
1636273821482967008,-0.173105,0.147539,-0.0175769,9.54329,-0.222661,0.758962
1636273821484970716,-0.170442,0.139017,-0.0255663,9.53371,-0.217872,0.742203
1636273821486962636,-0.162985,0.124636,-0.0420779,9.52653,-0.220267,0.806846
1636273821487958062,-0.157127,0.12144,-0.0474043,9.59835,-0.179565,0.837971
1636273821490965555,-0.152333,0.132625,-0.0511327,9.60793,-0.318429,0.902614
1636273821492959205,-0.145941,0.143811,-0.0617853,9.64863,-0.378284,0.85473
1636273821494956381,-0.14168,0.154463,-0.0655138,9.63187,-0.445322,0.964863
1636273821496956159,-0.135821,0.174171,-0.0687096,9.76834,-0.471658,0.967257
1636273821498989242,-0.132093,0.183758,-0.0692422,9.7444,-0.423774,1.00796
1636273821500987163,-0.123571,0.203466,-0.0756338,9.76834,-0.35913,0.92895
1636273821503962173,-0.113983,0.216249,-0.0745685,9.81862,-0.387861,0.912191
1636273821505962549,-0.105994,0.221575,-0.0740359,9.8282,-0.363919,0.938527
1636273821506960737,-0.104929,0.224238,-0.0735032,9.84017,-0.301669,0.897826
1636273821509962200,-0.0948085,0.223173,-0.0740359,9.85453,-0.25618,0.893037
1636273821511998502,-0.0841559,0.224771,-0.0676443,9.92636,-0.335188,0.852336
1636273821513961591,-0.0804275,0.228499,-0.0617853,9.93354,-0.299275,0.871489
1636273821515995505,-0.0745685,0.230097,-0.0671117,9.88566,-0.344765,0.845153
1636273821517965977,-0.0740359,0.236489,-0.062318,9.91678,-0.328006,0.818817
1636273821519957616,-0.0751011,0.241815,-0.0607201,9.94551,-0.351948,0.821211
1636273821520961117,-0.066579,0.240217,-0.0617853,9.96227,-0.351948,0.828394
1636273821523967346,-0.0676443,0.24288,-0.0617853,9.9934,-0.452504,0.938527
1636273821525989757,-0.0612527,0.253533,-0.0580569,9.93833,-0.428562,0.888249
1636273821528964233,-0.0649811,0.256729,-0.0596548,9.9503,-0.514753,0.909797
1636273821546967305,-0.0660464,0.189617,-0.0452737,9.991,-0.469264,0.931344
1636273821548969755,-0.066579,0.177899,-0.0378169,9.91678,-0.505177,0.92895
1636273821549982758,-0.066579,0.174171,-0.0340885,9.85214,-0.486023,0.919373
1636273821552963243,-0.0676443,0.166714,-0.0266316,9.86411,-0.452504,0.861913
1636273821554037418,-0.0681769,0.168312,-0.0229032,9.85214,-0.457293,0.861913
1636273821556967299,-0.0681769,0.167247,-0.0154463,9.84975,-0.445322,0.814029
1636273821558967095,-0.0697748,0.167779,-0.0117179,9.83778,-0.476446,0.799663
1636273821560990309,-0.0697748,0.165116,-0.0149137,9.73961,-0.433351,0.76375
1636273821562962898,-0.072438,0.165649,-0.00692422,9.76355,-0.471658,0.739808
1636273821563965786,-0.0719054,0.164051,-0.00266316,9.75398,-0.545878,0.732626
1636273821567004195,-0.0740359,0.166714,-0.00692422,9.71806,-0.538695,0.804452
1636273821568989002,-0.0751011,0.171508,-0.00426106,9.65582,-0.488417,0.701501
1636273821571983856,-0.0841559,0.175236,-0.0133158,9.6223,-0.509965,0.641646
1636273821572990681,-0.076699,0.169377,-0.0122505,9.63187,-0.538695,0.600945
1636273821575987772,-0.0740359,0.163518,-0.0245011,9.66539,-0.519542,0.519542
1636273821578016141,-0.0777643,0.14967,-0.0287621,9.68215,-0.52433,0.591368
1636273821580014327,-0.076699,0.144343,-0.0346211,9.65103,-0.562637,0.553061
1636273821581966848,-0.0740359,0.138484,-0.0479369,9.64863,-0.531513,0.562637
1636273821583024899,-0.0719054,0.135289,-0.0516653,9.69412,-0.59855,0.574608
1636273821585986365,-0.0729706,0.135289,-0.0559264,9.59596,-0.617704,0.593762
1636273821587964544,-0.0660464,0.140082,-0.0676443,9.64863,-0.574608,0.519542
1636273821589969161,-0.0644485,0.143278,-0.0740359,9.68455,-0.548272,0.526724
1636273821591993053,-0.0601874,0.139017,-0.0735032,9.62469,-0.560243,0.454898
1636273821594972232,-0.0527306,0.132625,-0.0852212,9.66539,-0.543484,0.45011
1636273821596965351,-0.0442085,0.13156,-0.0916127,9.66779,-0.52433,0.426168
1636273821613964311,0.0138484,0.133158,-0.110255,9.72764,-0.500388,0.711078
1636273821620962302,0.0170442,0.146474,-0.10919,9.75637,-0.600945,0.766145
1636273821622960871,0.0149137,0.142213,-0.110788,9.84017,-0.550666,0.837971
1636273821624960910,0.0207727,0.152333,-0.11132,9.77553,-0.663194,0.847547
1636273821625958325,0.0229032,0.150735,-0.112385,9.7444,-0.634463,0.785298
1636273821628957999,0.0239685,0.160322,-0.115049,9.84256,-0.632069,0.878672
1636273821629958893,0.0266316,0.168844,-0.114516,9.85214,-0.684742,0.845153
1636273821632961472,0.0298274,0.18216,-0.114516,9.89524,-0.682347,0.837971
1636273821634959920,0.0330232,0.188019,-0.111853,9.84975,-0.711078,0.823605
1636273821636981990,0.0330232,0.194943,-0.105461,9.8282,-0.723049,0.861913
1636273821639988127,0.0367516,0.203466,-0.105994,9.92157,-0.785298,0.76375
1636273821641994278,0.0420779,0.204531,-0.104396,9.92397,-0.742203,0.742203
1636273821643961947,0.0458064,0.203998,-0.0953412,9.88805,-0.727837,0.897826
1636273821645021791,0.0500674,0.207194,-0.0958738,9.90002,-0.73502,0.864307
1636273821647988310,0.056459,0.214118,-0.0836233,9.87848,-0.713472,0.859518
1636273821648998897,0.0639159,0.217847,-0.0777643,9.84256,-0.699107,0.835576
1636273821651993541,0.0676443,0.215716,-0.0649811,9.86172,-0.713472,0.811634
1636273821653985732,0.0772317,0.207194,-0.0532632,9.81144,-0.703895,0.859518
1636273821655974708,0.082558,0.200802,-0.046339,9.8689,-0.6608,0.905008
1636273821658965531,0.0916127,0.205596,-0.0234358,9.77313,-0.627281,0.842759
1636273821660983412,0.0900148,0.208792,-0.02024,9.7875,-0.608127,0.907402
1636273821662990612,0.0894822,0.21252,-0.0015979,9.73722,-0.593762,0.816423
1636273821663991748,0.082558,0.211455,0.00106526,9.73722,-0.629675,0.811634
1636273821680963522,0.0809601,0.166714,0.0367516,9.39245,-0.509965,0.502782
1636273821683085885,0.0852212,0.1518,0.0372843,9.35893,-0.483629,0.488417
1636273821685135522,0.0836233,0.143278,0.0367516,9.32063,-0.45011,0.493206
1636273821686964310,0.0900148,0.120908,0.036219,9.22725,-0.452504,0.514753
1636273821687963069,0.0905475,0.111853,0.0324906,9.30866,-0.435745,0.486023
1636273821691957990,0.0905475,0.0873517,0.0255663,9.20571,-0.430956,0.620098
1636273821693961835,0.092678,0.0846885,0.0218379,9.14106,-0.476446,0.648829
1636273821695961836,0.100135,0.0777643,0.0143811,8.96868,-0.466869,0.641646
1636273821696976711,0.0980043,0.0713727,0.0149137,9.0429,-0.452504,0.651223
1636273821699975847,0.0990696,0.0585895,0.00798948,9.15064,-0.464475,0.699107
1636273821701974466,0.098537,0.0383495,-0.00372843,9.0836,-0.490811,0.778116
1636273821703989594,0.103863,0.0308927,-0.0117179,9.11951,-0.471658,0.806846
1636273821705963811,0.102798,0.0191748,-0.0154463,9.0429,-0.486023,0.80924
1636273821707989647,0.104929,0.0149137,-0.0197074,9.02135,-0.500388,0.821211
1636273821710958778,0.103863,0.00426106,-0.0340885,9.01178,-0.483629,0.895431
1636273821713033811,0.102265,0.01012,-0.0324906,8.98783,-0.521936,0.938527
1636273821714959113,0.100667,0.0154463,-0.0431432,8.99502,-0.517148,0.967257
1636273821715965623,0.100135,0.0191748,-0.0490022,8.99023,-0.509965,0.950498
1636273821719002438,0.0980043,0.0266316,-0.0612527,8.97826,-0.462081,1.03669
1636273821720997061,0.0910801,0.0335558,-0.0713727,8.95671,-0.469264,1.0343
1636273821722966626,0.0905475,0.0367516,-0.0735032,9.02375,-0.416591,1.0343
1636273821724962796,0.0900148,0.0394148,-0.0873517,9.02135,-0.493206,1.05584
1636273821726999990,0.0814927,0.0410127,-0.0937433,8.93756,-0.428562,1.0726
1636273821728997386,0.0761664,0.0575243,-0.107059,8.95431,-0.423774,1.11809
1636273821729996411,0.0713727,0.0692422,-0.113451,8.90643,-0.435745,1.10133
1636273821746961839,0.0319579,0.116114,-0.20027,9.19852,-0.409408,1.25456
1636273821748973377,0.0292948,0.127299,-0.211455,9.19134,-0.361524,1.26893
1636273821751966884,0.0250337,0.142213,-0.22051,9.30866,-0.395043,1.26653
1636273821753965325,0.0250337,0.164583,-0.227434,9.32302,-0.392649,1.29526
1636273821755967316,0.0223706,0.168312,-0.229032,9.36372,-0.361524,1.28329
1636273821758969271,0.0229032,0.185356,-0.23276,9.40203,-0.287304,1.28329
1636273821760992614,0.0229032,0.188552,-0.23276,9.36372,-0.3304,1.30963
1636273821762967053,0.0223706,0.194411,-0.226369,9.39724,-0.287304,1.30005
1636273821763967127,0.0245011,0.197074,-0.221042,9.41161,-0.292093,1.26414
1636273821766985639,0.0207727,0.198139,-0.21252,9.43316,-0.265756,1.33357
1636273821767996486,0.026099,0.194411,-0.209857,9.37569,-0.258574,1.2402
1636273821770987899,0.0229032,0.189617,-0.203466,9.44991,-0.299275,1.21386
1636273821772989695,0.015979,0.178432,-0.198672,9.43555,-0.196325,1.15879
1636273821774964576,0.0165116,0.167779,-0.193346,9.4164,-0.23942,1.09894
1636273821776970063,0.0149137,0.154463,-0.18003,9.48343,-0.287304,1.07978
1636273821778025739,0.0138484,0.145409,-0.18216,9.49062,-0.339977,1.05824
1636273821781014006,0.00958738,0.14168,-0.176834,9.44991,-0.380678,1.04387
1636273821782983018,0.00852212,0.12943,-0.166181,9.46907,-0.407014,0.995988
1636273821785998298,0.00798948,0.130495,-0.159257,9.56484,-0.373495,1.00796
1636273821786986542,0.00745685,0.127299,-0.156594,9.48822,-0.411803,0.957681
1636273821790012713,0.0117179,0.115049,-0.153398,9.59117,-0.383072,0.952892
1636273821792011105,0.0117179,0.0942759,-0.145409,9.58399,-0.395043,0.993594
1636273821793979135,0.0138484,0.0772317,-0.141148,9.62708,-0.395043,1.01035
1636273821795983851,0.0213053,0.046339,-0.140082,9.65342,-0.371101,1.04148
1636273821810966395,0.0213053,-0.0218379,-0.0282295,9.44034,-0.320823,1.14922
1636273821813964473,0.02024,-0.0250337,-0.0191748,9.45231,-0.337582,1.15401
1636273821815968688,0.0229032,-0.0314253,-0.00692422,9.40203,-0.368707,1.17076
1636273821818019267,0.0245011,-0.0378169,0.0015979,9.41879,-0.316035,1.20668
1636273821819960799,0.0245011,-0.0490022,0.00692422,9.38766,-0.356736,1.1995
1636273821820965789,0.0287621,-0.0537959,0.00905475,9.36612,-0.37589,1.16837
1636273821823967809,0.02024,-0.0580569,0.0181095,9.33739,-0.361524,1.18513
1636273821826984927,0.0197074,-0.0655138,0.0191748,9.30626,-0.241814,1.1971
1636273821828985692,0.0170442,-0.072438,0.026099,9.18176,-0.227449,1.18274
1636273821830000107,0.0175769,-0.0740359,0.0276969,9.12909,-0.150835,1.2402
1636273821832961992,0.0122505,-0.0820254,0.0319579,9.07881,-0.150835,1.16358
1636273821834958912,0.01012,-0.0932106,0.0276969,9.02614,-0.134075,1.14922
1636273821836962478,0.00372843,-0.102265,0.0276969,9.00938,-0.110133,1.11091
1636273821838961793,-0.00426106,-0.119842,0.0191748,8.96868,-0.179565,1.15879
1636273821839959704,-0.00958738,-0.130495,0.0234358,8.98304,-0.1652,1.14443
1636273821842960169,-0.02024,-0.150202,0.0133158,8.95431,-0.217872,1.18274
1636273821843987872,-0.0229032,-0.163518,0.0127832,8.95671,-0.126893,1.18274
1636273821846988239,-0.0372843,-0.177899,0.00532632,8.89685,-0.155623,1.17316
1636273821848959131,-0.0490022,-0.186954,-0.00639159,8.94713,-0.162806,1.21147
1636273821850960776,-0.0569916,-0.19015,-0.0127832,8.94953,-0.172383,1.17795
1636273821853962032,-0.0729706,-0.187487,-0.0282295,8.90404,-0.148441,1.09415
1636273821855962369,-0.0772317,-0.186421,-0.0346211,8.89207,-0.0646434,1.09415
1636273821857962739,-0.0857538,-0.181095,-0.0452737,8.87052,-0.11971,1.1157
1636273821858988207,-0.0905475,-0.178432,-0.0500674,8.82742,-0.0981623,1.11091
1636273821861962414,-0.0910801,-0.162453,-0.0644485,8.82263,-0.150835,1.06781
1636273821877962502,-0.092678,-0.114516,-0.183758,9.20092,-0.126893,1.05824
1636273821879974209,-0.0884169,-0.116114,-0.189084,9.26795,-0.143652,1.0319
1636273821881966029,-0.0878843,-0.11132,-0.201335,9.30866,-0.131681,1.05105
1636273821883964826,-0.0814927,-0.107592,-0.205063,9.34457,-0.138864,1.01514
1636273821885966186,-0.082558,-0.0852212,-0.225303,9.42837,-0.177171,1.02711
1636273821886967653,-0.0809601,-0.0772317,-0.223706,9.45231,-0.160412,1.01275
1636273821890961067,-0.0788296,-0.0431432,-0.236489,9.49062,-0.141258,0.955287
1636273821891991594,-0.0782969,-0.0319579,-0.236489,9.52892,-0.198719,0.919373
1636273821894961585,-0.0756338,-0.0143811,-0.24075,9.6199,-0.172383,0.933739
1636273821896960944,-0.0788296,0.00213053,-0.244478,9.65821,-0.19393,0.830788
1636273821898963997,-0.0751011,0.00905475,-0.247674,9.68933,-0.203507,0.802058
1636273821900960901,-0.0751011,0.0186421,-0.250337,9.72285,-0.155623,0.802058
1636273821902961117,-0.0735032,0.0245011,-0.249272,9.7444,-0.138864,0.799663
1636273821904994782,-0.0687096,0.0239685,-0.248739,9.81623,-0.143652,0.725443
1636273821905993669,-0.0708401,0.0250337,-0.247141,9.94551,-0.117316,0.679953
1636273821908999783,-0.0655138,0.0117179,-0.243946,9.83538,-0.124498,0.732626
1636273821911000207,-0.0575243,-0.000532632,-0.235956,9.89284,-0.0909797,0.720655
1636273821912989664,-0.0548611,-0.00905475,-0.228499,9.84017,-0.0861913,0.718261
1636273821915959431,-0.0500674,-0.036219,-0.214651,9.85214,-0.0909797,0.773327
1636273821917961692,-0.0474043,-0.0383495,-0.201868,9.87608,-0.105345,0.730232
1636273821919960049,-0.0484695,-0.0436758,-0.19015,9.89284,-0.110133,0.691924
1636273821920964306,-0.0436758,-0.0479369,-0.183225,9.90481,-0.169988,0.70629
1636273821924005248,-0.0346211,-0.0532632,-0.164051,9.93354,-0.107739,0.749385
1636273821925014190,-0.0340885,-0.062318,-0.158192,9.90002,-0.112527,0.711078
1636273821928002657,-0.0276969,-0.0756338,-0.136886,9.8689,-0.105345,0.746991
1636273821929997289,-0.0191748,-0.0868191,-0.125169,9.84735,-0.0790087,0.794875
1636273821931970028,-0.0154463,-0.0900148,-0.116114,9.78271,-0.0981623,0.794875
1636273821957960816,0.0330232,0.0585895,-0.126234,9.46189,0.0885855,1.01754
1636273821959979684,0.0314253,0.0612527,-0.134223,9.55526,0.117316,1.00317
1636273821961972729,0.0388822,0.0660464,-0.147006,9.51695,0.181959,0.981623
1636273821962967635,0.04048,0.0660464,-0.159257,9.50977,0.136469,0.976834
1636273821965965536,0.0431432,0.0575243,-0.178964,9.50498,0.220267,0.952892
1636273821967965012,0.0474043,0.052198,-0.191215,9.53132,0.177171,0.967257
1636273821971005049,0.0474043,0.0569916,-0.211988,9.54329,0.222661,0.967257
1636273821972988686,0.0410127,0.0660464,-0.225303,9.51935,0.177171,0.976834
1636273821974968440,0.0383495,0.0745685,-0.237554,9.53132,0.177171,0.943315
1636273821977009805,0.0330232,0.0916127,-0.258859,9.55526,0.107739,0.986411
1636273821978059684,0.0367516,0.100667,-0.267381,9.61751,0.112527,0.981623
1636273821981013410,0.0324906,0.127299,-0.291882,9.62948,0.112527,0.984017
1636273821981984217,0.03036,0.135821,-0.302535,9.65103,0.143652,0.967257
1636273821984960378,0.0245011,0.162453,-0.319047,9.65342,0.0215478,1.03669
1636273821986960567,0.0207727,0.185356,-0.3542,9.77792,0.0191536,1.1157
1636273821988965500,0.0207727,0.198672,-0.364853,9.83299,0.0167594,1.10612
1636273821991005184,0.0175769,0.223173,-0.393083,9.79468,0.0191536,1.13006
1636273821993962982,0.0117179,0.243413,-0.416518,9.89284,0.023942,1.16837
1636273821995987176,0.0149137,0.264718,-0.442085,9.94551,0.0167594,1.30005
1636273822010986911,-0.0149137,0.39255,-0.50174,10.1035,-0.0885855,1.37427
1636273822012989621,-0.0175769,0.405333,-0.504935,10.1538,-0.102951,1.38385
1636273822014961726,-0.0197074,0.426106,-0.50174,10.1993,-0.0694318,1.33357
1636273822015976665,-0.0255663,0.428236,-0.495881,10.2256,-0.0837971,1.32878
1636273822019967222,-0.0282295,0.433563,-0.486293,10.2879,-0.134075,1.22823
1636273822021966239,-0.0250337,0.436758,-0.4815,10.3094,-0.215478,1.18274
1636273822023965057,-0.0229032,0.426106,-0.480434,10.4651,-0.213084,1.18992
1636273822024964192,-0.0186421,0.425573,-0.47351,10.4076,-0.198719,1.15161
1636273822027961581,-0.0138484,0.405333,-0.459129,10.4363,-0.280122,1.11809
1636273822029996861,-0.0111853,0.380832,-0.447411,10.4914,-0.28491,1.01275
1636273822031984146,-0.0133158,0.367516,-0.436758,10.5345,-0.292093,1.04627
1636273822034014456,-0.0133158,0.347809,-0.420247,10.386,-0.232238,1.00317
1636273822034985402,-0.0127832,0.333428,-0.411192,10.4962,-0.311246,1.00078
1636273822037988842,-0.0186421,0.308927,-0.391485,10.4363,-0.282516,0.984017
1636273822038966050,-0.02024,0.299339,-0.379767,10.3525,-0.265756,0.998382
1636273822041964312,-0.0250337,0.282295,-0.357396,10.3597,-0.198719,1.05105
1636273822043964506,-0.0394148,0.272175,-0.335026,10.252,-0.146046,1.0343
1636273822047001922,-0.0431432,0.265251,-0.317449,10.2304,-0.105345,1.00078
1636273822048994525,-0.0484695,0.255131,-0.290817,10.1921,-0.023942,0.950498
1636273822050994426,-0.0452737,0.246609,-0.28336,10.173,0.0047884,0.931344
1636273822052965465,-0.052198,0.240217,-0.263653,10.1155,-0.011971,0.950498
1636273822053967236,-0.0474043,0.233293,-0.257261,10.0772,-0.0215478,0.948104
1636273822057004026,-0.0383495,0.225836,-0.244478,10.0916,-0.0263362,0.92895
1636273822058004377,-0.0378169,0.217314,-0.235423,10.0149,0.00718261,0.895431
1636273822060964263,-0.0282295,0.197074,-0.224771,10.0604,-0.00718261,0.845153
1636273822062991156,-0.0234358,0.176301,-0.215716,10.0149,0.0047884,0.818817
1636273822078963180,0.0324906,0.0942759,-0.167247,10.1179,-0.023942,0.876278
1636273822080976316,0.0458064,0.0697748,-0.154996,10.1514,0.035913,0.914585
1636273822081968930,0.0474043,0.0527306,-0.153931,10.1203,0.0263362,0.852336
1636273822084965891,0.0580569,0.0266316,-0.134756,10.161,0.107739,0.785298
1636273822086963141,0.0649811,-0.00213053,-0.125169,10.1418,0.071826,0.677559
1636273822089976529,0.0751011,-0.0292948,-0.113983,10.1227,0.0502782,0.737414
1636273822091964841,0.0857538,-0.0575243,-0.0958738,10.0221,0.0933739,0.790087
1636273822093968560,0.092678,-0.0708401,-0.0900148,10.0317,0.047884,0.701501
1636273822095962089,0.0974717,-0.103331,-0.0772317,10.0293,0.112527,0.744597
1636273822098016346,0.104929,-0.12144,-0.0751011,9.99819,0.023942,0.730232
1636273822100011547,0.112918,-0.152865,-0.062318,9.94073,0.00718261,0.80924
1636273822100963085,0.118244,-0.160855,-0.0553938,9.97903,0.023942,0.85473
1636273822103985025,0.128364,-0.175236,-0.0415453,9.83538,0.047884,0.933739
1636273822105962863,0.141148,-0.179497,-0.0298274,9.80426,0.0670376,0.909797
1636273822108968818,0.156061,-0.171508,-0.0191748,9.74201,0.047884,0.976834
1636273822110970691,0.164051,-0.160855,-0.0117179,9.66539,0.0694318,1.05105
1636273822112971725,0.173638,-0.147006,-0.0106526,9.6606,0.0215478,1.13485
1636273822114968113,0.186954,-0.121973,-0.0015979,9.55526,0.0454898,1.07978
1636273822116969678,0.194411,-0.10919,0.00213053,9.56244,0.114922,1.09176
1636273822118964640,0.204531,-0.0782969,-0.00426106,9.50977,0.177171,1.12767
1636273822120010774,0.209857,-0.0617853,-0.00639159,9.48583,0.213084,1.12049
1636273822122961595,0.219444,-0.0431432,-0.015979,9.39964,0.191536,1.21386
1636273822124964927,0.234891,-0.00532632,-0.0223706,9.32302,0.225055,1.29287
1636273822126965613,0.238087,0.00639159,-0.0351537,9.27753,0.227449,1.30963
1636273822128962628,0.245011,0.046339,-0.0479369,9.28232,0.227449,1.4054
1636273822131968827,0.25087,0.0740359,-0.0628506,9.18655,0.366313,1.42694
1636273822148988992,0.19015,0.319579,-0.265783,9.21289,0.476446,1.91057
1636273822151974082,0.175236,0.341417,-0.297741,9.2919,0.3304,1.98479
1636273822152972453,0.166714,0.351537,-0.311057,9.3302,0.385466,1.94888
1636273822155965908,0.139017,0.373375,-0.346744,9.37569,0.349553,1.97761
1636273822157967535,0.116114,0.391485,-0.368049,9.39724,0.339977,1.94649
1636273822159969007,0.106526,0.406398,-0.380832,9.39485,0.385466,1.96085
1636273822161991058,0.0836233,0.434628,-0.398942,9.50019,0.347159,1.95367
1636273822162988600,0.0703075,0.451672,-0.403203,9.49301,0.373495,1.99916
1636273822165982072,0.0495348,0.477771,-0.414388,9.54808,0.447716,1.94649
1636273822167989580,0.0292948,0.495881,-0.421845,9.60314,0.45011,1.86029
1636273822170993480,0.00905475,0.51186,-0.420247,9.4978,0.488417,1.81959
1636273822171987954,0.0015979,0.511327,-0.418649,9.57441,0.42138,1.8172
1636273822174962718,-0.0122505,0.512392,-0.414388,9.53371,0.442927,1.70467
1636273822176960793,-0.0181095,0.504403,-0.407996,9.6199,0.447716,1.63045
1636273822178962017,-0.0250337,0.497478,-0.407996,9.58399,0.466869,1.56341
1636273822180962986,-0.0292948,0.474043,-0.390952,9.55526,0.440533,1.52271
1636273822181964213,-0.0335558,0.466053,-0.38243,9.54329,0.433351,1.51074
1636273822184963551,-0.0356864,0.452205,-0.366984,9.46428,0.42138,1.3623
1636273822186961479,-0.04048,0.436226,-0.353668,9.43794,0.42138,1.36469
1636273822188963919,-0.0394148,0.429302,-0.34408,9.39724,0.418985,1.31442
1636273822190989086,-0.0367516,0.418649,-0.330765,9.35893,0.347159,1.31442
1636273822192996575,-0.0399474,0.4048,-0.317981,9.39964,0.296881,1.30484
1636273822194992812,-0.0319579,0.374973,-0.307329,9.35415,0.368707,1.24498
1636273822197971877,-0.0223706,0.345146,-0.296676,9.3326,0.371101,1.15879
1636273822213963263,0.0511327,0.154463,-0.219444,9.32542,0.500388,1.02951
1636273822215004592,0.0585895,0.140082,-0.211455,9.31584,0.497994,1.01754
1636273822218055105,0.0708401,0.115049,-0.207727,9.21528,0.553061,1.00317
1636273822219962466,0.0809601,0.0830906,-0.19228,9.12909,0.557849,1.02232
1636273822222966281,0.0910801,0.0575243,-0.191215,9.17698,0.469264,0.972046
1636273822224962896,0.0948085,0.0207727,-0.18216,9.13148,0.533907,1.01035
1636273822226967322,0.0964064,0.0133158,-0.185889,9.17698,0.531513,0.957681
1636273822228965028,0.106526,-0.0133158,-0.186954,9.10036,0.536301,0.969652
1636273822230974849,0.107059,-0.0223706,-0.193346,9.13388,0.548272,1.01035
1636273822232967711,0.116646,-0.0431432,-0.197074,9.13388,0.533907,1.01035
1636273822233969365,0.118244,-0.0447411,-0.197607,9.17698,0.497994,1.09894
1636273822236969793,0.123571,-0.0506001,-0.213053,9.16022,0.411803,1.09654
1636273822238966991,0.12943,-0.0490022,-0.217847,9.1674,0.399832,1.12527
1636273822240969384,0.135289,-0.0458064,-0.221042,9.19613,0.433351,1.19231
1636273822242963886,0.140615,-0.04048,-0.224238,9.2895,0.368707,1.21625
1636273822243967399,0.148072,-0.0351537,-0.234358,9.30387,0.371101,1.26174
1636273822247967405,0.160855,-0.0213053,-0.238619,9.34696,0.469264,1.28808
1636273822249966868,0.165649,-0.0175769,-0.241815,9.35175,0.483629,1.28329
1636273822251967080,0.171508,-0.00585895,-0.246076,9.36372,0.481235,1.36709
1636273822252965102,0.176301,0,-0.245543,9.35893,0.521936,1.34315
1636273822255969400,0.172573,0.0191748,-0.255131,9.36612,0.490811,1.41497
1636273822257972326,0.183758,0.0372843,-0.249805,9.30626,0.584185,1.45807
1636273822259976057,0.181628,0.0452737,-0.257261,9.36372,0.627281,1.44849
1636273822261970704,0.174703,0.0532632,-0.257261,9.36851,0.588974,1.51074
1636273822262968941,0.172573,0.0601874,-0.257261,9.32302,0.54109,1.52989
1636273822279999727,0.135289,0.103331,-0.296144,9.45949,0.593762,1.76453
1636273822281978006,0.126234,0.10919,-0.298274,9.53611,0.579397,1.73819
1636273822283976478,0.123571,0.11132,-0.303068,9.47386,0.577003,1.80523
1636273822286967819,0.115049,0.117712,-0.307329,9.4571,0.557849,1.79565
1636273822288970687,0.106526,0.118777,-0.304133,9.43316,0.579397,1.79565
1636273822290965158,0.0969391,0.121973,-0.298274,9.46428,0.538695,1.7358
1636273822292968130,0.0905475,0.122505,-0.299339,9.47864,0.557849,1.72143
1636273822294963287,0.0793622,0.10919,-0.299872,9.47386,0.574608,1.65679
1636273822295964325,0.0729706,0.0996022,-0.29348,9.50259,0.545878,1.67115
1636273822298964270,0.066579,0.0793622,-0.282295,9.48583,0.584185,1.69509
1636273822300963781,0.0559264,0.0527306,-0.270577,9.55765,0.703895,1.64003
1636273822302963121,0.052198,0.04048,-0.262055,9.51695,0.703895,1.63763
1636273822304995383,0.046339,0.0234358,-0.245543,9.46428,0.672771,1.58017
1636273822305987648,0.0452737,0.0154463,-0.237554,9.47864,0.605733,1.67594
1636273822309962135,0.0335558,-0.00532632,-0.218379,9.44513,0.679953,1.53468
1636273822311962695,0.036219,-0.0191748,-0.213053,9.45231,0.754174,1.51553
1636273822313986707,0.0356864,-0.0442085,-0.195476,9.56484,0.723049,1.47962
1636273822314962528,0.0383495,-0.0596548,-0.190682,9.5385,0.751779,1.53468
1636273822317983675,0.0394148,-0.0862864,-0.178964,9.61511,0.720655,1.48201
1636273822319962295,0.036219,-0.112385,-0.174171,9.63666,0.754174,1.49638
1636273822321996356,0.04048,-0.124636,-0.170975,9.63666,0.828394,1.46765
1636273822324000790,0.0415453,-0.149137,-0.159257,9.73722,0.835576,1.47722
1636273822324966024,0.0436758,-0.153931,-0.160322,9.7444,0.823605,1.47722
1636273822327965303,0.0468716,-0.18003,-0.158724,9.72764,0.775721,1.45567
1636273822328963593,0.0458064,-0.189617,-0.157659,9.79707,0.739808,1.48441
1636273822346964461,0.0756338,-0.324373,-0.123038,9.88805,0.766145,1.30484
1636273822349971298,0.0894822,-0.338221,-0.118777,9.87608,0.749385,1.22104
1636273822351968396,0.0942759,-0.351005,-0.114516,9.84735,0.746991,1.27372
1636273822352964594,0.0990696,-0.347276,-0.10919,9.92397,0.754174,1.23062
1636273822355965905,0.108657,-0.352603,-0.104929,9.95509,0.715866,1.25456
1636273822357970215,0.115581,-0.345678,-0.092678,9.81623,0.624887,1.19231
1636273822359969181,0.120375,-0.34195,-0.0900148,9.84735,0.617704,1.25456
1636273822361965796,0.132625,-0.335558,-0.0868191,9.87129,0.629675,1.27132
1636273822362967560,0.140615,-0.325438,-0.0836233,9.86411,0.59855,1.27372
1636273822365988528,0.150735,-0.304133,-0.0836233,9.85214,0.550666,1.35751
1636273822366988450,0.159257,-0.290285,-0.0809601,9.82341,0.560243,1.32878
1636273822369962776,0.172573,-0.268447,-0.0798948,9.87369,0.622492,1.35512
1636273822371964073,0.186421,-0.245543,-0.0703075,9.8258,0.742203,1.30245
1636273822374965541,0.197074,-0.235423,-0.0660464,9.85932,0.828394,1.24738
1636273822376963465,0.206661,-0.233826,-0.0607201,9.85932,0.885855,1.27611
1636273822378968368,0.217847,-0.23063,-0.0612527,9.82341,0.859518,1.24977
1636273822380963201,0.225836,-0.235956,-0.0612527,9.78271,0.94571,1.21625
1636273822381970903,0.229564,-0.231695,-0.0553938,9.81623,0.936133,1.27372
1636273822384998243,0.243946,-0.241815,-0.0543285,9.80186,0.931344,1.22344
1636273822385996680,0.248207,-0.244478,-0.0559264,9.80904,0.926556,1.22823
1636273822388998434,0.256196,-0.245011,-0.0569916,9.72285,0.85473,1.23541
1636273822391002511,0.266849,-0.255663,-0.0559264,9.75877,0.861913,1.29526
1636273822392969356,0.27111,-0.259925,-0.0569916,9.76116,0.869095,1.2809
1636273822394962667,0.279632,-0.265251,-0.0543285,9.77313,0.849942,1.3216
1636273822395967742,0.281762,-0.272175,-0.0612527,9.76116,0.866701,1.29287
1636273822413992430,0.322775,-0.337156,-0.0628506,9.94073,0.948104,1.53229
1636273822418971309,0.329699,-0.34195,-0.0559264,9.9096,0.936133,1.68073
1636273822421970155,0.32384,-0.333428,-0.0516653,9.94791,0.924162,1.71664
